anon_id,nth_play,trial,xpos,ypos,flanker_direction,response_direction,response_time,stimulus_layout,target_direction
163,50,1,270,213,U,R,824,2,R
163,50,2,416,184,L,L,1131,5,L
163,50,3,240,201,U,U,887,6,U
163,50,4,425,253,R,R,679,5,R
163,50,5,248,200,U,L,919,3,L
163,50,6,394,221,U,U,721,1,U
163,50,7,226,190,R,R,759,4,R
163,50,8,524,209,U,U,768,5,U
163,50,9,248,224,U,D,784,0,D
163,50,10,516,216,D,R,856,6,R
163,50,11,250,217,U,U,718,0,U
163,50,12,417,273,D,D,712,1,D
163,50,13,226,205,R,R,758,5,R
163,50,14,455,230,D,D,945,6,D
163,50,15,248,269,L,L,687,5,L
163,50,16,442,278,D,D,784,3,D
163,50,17,185,174,D,U,730,1,U
163,50,18,501,207,U,U,726,6,U
163,50,19,143,271,D,R,816,6,R
163,50,20,371,242,L,D,896,4,D
163,50,21,227,188,U,U,962,3,U
163,50,22,500,179,U,D,773,2,D
163,50,23,300,194,R,R,712,5,R
163,50,24,138,251,L,R,815,0,R
163,50,25,416,174,R,R,753,6,R
163,50,26,142,228,L,D,1047,3,D
163,50,27,364,277,U,U,640,2,U
163,50,28,145,286,L,L,697,2,L
163,50,29,320,202,L,L,695,0,L
163,50,30,190,259,U,L,791,0,L
163,50,31,476,226,U,D,777,5,L
163,50,32,298,214,D,D,992,6,D
163,50,33,131,201,L,L,733,2,L
163,50,34,432,178,D,D,633,1,D
163,50,35,217,238,L,L,688,6,L
163,50,36,414,205,R,R,778,2,R
163,50,37,205,213,U,L,726,4,R
163,50,38,466,201,D,R,672,1,D
163,50,39,316,254,R,D,552,6,D
163,50,40,495,179,R,D,1081,3,D
163,50,41,186,175,U,D,1095,6,D
163,50,42,418,229,L,D,279,0,D
163,50,43,176,273,D,D,1185,3,D
163,50,44,340,249,D,D,608,6,D
163,50,45,147,200,R,R,855,3,R
163,50,46,457,255,R,D,968,4,D
163,50,47,206,257,R,R,671,6,R
163,50,48,369,249,L,L,888,1,L
163,50,49,207,269,D,D,623,0,D
163,50,50,503,254,R,R,696,4,R
163,50,51,295,200,U,U,1039,5,U
163,50,52,153,221,D,D,696,5,D
163,50,53,411,268,R,U,817,0,U
163,50,54,231,284,U,U,720,0,U
163,50,55,123,193,D,D,661,5,U
163,50,56,300,264,D,D,923,0,D
163,51,1,388,249,L,R,721,2,R
163,51,2,132,220,U,U,916,4,U
163,51,3,397,224,D,D,1087,6,D
163,51,4,161,235,R,R,654,4,R
163,51,5,338,214,U,R,944,5,R
163,51,6,115,258,L,D,938,5,D
163,51,7,391,278,L,U,1022,4,U
163,51,8,201,273,L,L,896,6,L
163,51,9,482,235,D,L,1184,6,L
163,51,10,341,191,L,R,832,1,R
163,51,11,475,265,L,L,720,6,L
163,51,12,229,262,D,L,720,3,L
163,51,13,374,240,U,D,856,1,D
163,51,14,123,201,D,U,944,0,U
163,51,15,349,239,L,U,1328,4,U
163,51,16,169,283,U,U,783,2,U
163,51,17,462,280,U,U,855,1,U
163,51,18,116,192,R,U,1031,5,U
163,51,19,273,203,D,U,865,2,U
163,51,20,441,273,L,D,1095,4,D
163,51,21,249,183,U,U,1040,5,U
163,51,22,422,284,L,L,687,0,L
163,51,23,156,230,R,R,832,4,R
163,51,24,473,175,U,R,703,2,R
163,51,25,193,269,L,L,736,3,L
163,51,26,329,209,L,L,638,1,L
163,51,27,150,250,L,L,721,5,L
163,51,28,448,229,D,U,864,2,U
163,51,29,117,239,R,L,912,0,L
163,51,30,285,193,D,U,872,6,R
163,51,31,431,201,R,D,967,5,D
163,51,32,219,196,U,D,823,3,D
163,51,33,450,243,U,U,711,4,U
163,51,34,157,281,U,L,680,0,L
163,51,35,392,193,L,L,728,0,L
163,51,36,211,258,L,L,704,5,L
163,51,37,397,185,R,D,823,0,D
163,51,38,522,279,U,L,1095,3,L
163,51,39,269,170,D,D,799,5,D
163,51,40,133,225,U,R,1120,0,R
163,51,41,296,171,R,R,688,4,R
163,51,42,495,211,R,L,1024,0,L
163,51,43,342,285,D,D,712,0,D
163,51,44,462,187,R,L,896,3,L
163,51,45,216,220,D,D,618,0,D
163,51,46,440,210,U,L,735,1,L
163,51,47,127,183,D,D,677,5,D
163,51,48,405,215,L,L,658,4,L
163,51,49,202,269,D,D,674,5,D
163,51,50,369,278,L,U,942,4,U
163,51,51,498,217,U,D,728,1,D
163,51,52,164,287,L,D,856,1,D
163,51,53,400,250,D,L,783,5,L
163,52,1,270,175,U,U,862,3,U
163,52,2,122,223,L,L,812,5,L
163,52,3,268,178,D,U,896,0,U
163,52,4,440,214,U,L,791,5,L
163,52,5,210,269,U,U,751,3,U
163,52,6,462,261,R,R,663,4,R
163,52,7,284,227,L,D,951,4,D
163,52,8,441,205,R,R,711,2,R
163,52,9,252,286,U,L,776,1,L
163,52,10,402,206,L,R,760,2,R
163,52,11,116,231,U,U,864,1,U
163,52,12,299,209,L,D,751,5,D
163,52,13,127,286,U,U,847,3,U
163,52,14,512,229,R,R,615,0,R
163,52,15,186,280,R,L,648,6,L
163,52,16,501,200,L,L,663,3,L
163,52,17,314,212,R,D,1073,6,D
163,52,18,451,262,R,R,670,0,R
163,52,19,207,216,R,U,689,6,U
163,52,20,435,246,R,R,623,2,R
163,52,21,203,224,R,U,937,4,U
163,52,22,367,200,L,L,647,1,L
163,52,23,157,176,L,R,1016,3,R
163,52,24,461,176,R,R,841,5,R
163,52,25,180,206,L,L,703,6,L
163,52,26,403,267,D,U,919,0,U
163,52,27,202,170,D,D,583,4,D
163,52,28,356,171,U,D,937,5,D
163,52,29,509,170,R,R,719,2,R
163,52,30,387,258,D,D,718,1,D
163,52,31,239,244,R,L,839,4,L
163,52,32,412,189,R,L,1032,6,L
163,52,33,149,194,D,D,840,5,D
163,52,34,339,236,L,R,1110,5,R
163,52,35,147,221,L,L,778,0,L
163,52,36,428,233,R,U,848,0,U
163,52,37,227,228,U,L,758,5,L
163,52,38,514,270,L,L,920,6,L
163,52,39,210,180,L,R,896,2,R
163,52,40,406,186,R,D,695,1,D
163,52,41,207,258,U,U,632,6,U
163,52,42,479,176,U,R,904,0,R
163,52,43,193,257,R,U,824,2,U
163,52,44,347,243,U,D,656,4,D
163,52,45,177,286,U,L,912,4,L
163,52,46,498,252,D,L,814,0,L
163,52,47,192,188,R,R,768,1,R
163,52,48,519,288,U,L,681,2,L
163,52,49,322,255,D,D,871,3,D
163,52,50,137,176,D,U,1173,6,U
163,52,51,323,223,D,U,852,1,U
163,52,52,179,213,D,L,777,1,L
163,52,53,518,209,R,R,718,1,R
163,52,54,295,234,U,L,782,0,L
163,52,55,505,266,U,D,805,5,D
163,52,56,325,201,L,L,677,2,L
163,53,1,391,263,D,L,1619,0,L
163,53,2,134,276,L,L,737,2,L
163,53,3,302,269,D,D,703,2,D
163,53,4,468,265,L,L,687,4,L
163,53,5,270,282,U,U,783,6,U
163,53,6,505,259,U,U,623,6,U
163,53,7,294,199,U,U,576,0,U
163,53,8,524,277,D,L,825,5,L
163,53,9,126,268,L,R,895,5,R
163,53,10,265,208,D,U,870,1,U
163,53,11,507,229,R,R,776,5,R
163,53,12,230,237,R,U,721,2,U
163,53,13,455,270,R,U,871,3,U
163,53,14,289,234,D,U,687,6,U
163,53,15,501,184,L,L,648,4,L
163,53,16,196,235,D,R,760,2,R
163,53,17,495,286,U,U,704,4,U
163,53,18,334,283,R,L,727,2,L
163,53,19,144,212,D,R,871,1,R
163,53,20,339,267,D,D,656,1,D
163,53,21,125,258,L,L,655,2,L
163,53,22,304,176,R,R,647,2,R
163,53,23,186,256,L,D,712,5,U
163,53,24,497,253,R,U,351,1,R
163,53,25,356,209,D,D,1120,0,D
163,53,26,187,201,D,R,846,2,R
163,53,27,462,179,R,R,607,3,R
163,53,28,230,223,L,U,719,6,U
163,53,29,498,258,R,R,695,5,R
163,53,30,150,224,L,U,607,6,U
163,53,31,427,280,D,L,719,2,L
163,53,32,184,287,U,U,768,5,U
163,53,33,373,187,D,L,806,3,L
163,53,34,229,282,L,L,848,5,D
163,53,35,491,210,L,D,551,4,L
163,53,36,236,194,R,R,1168,3,R
163,53,37,432,221,U,L,824,5,L
163,53,38,192,211,R,R,688,0,R
163,53,39,481,254,R,R,641,0,R
163,53,40,120,248,U,R,806,1,R
163,53,41,260,229,D,D,593,0,D
163,53,42,414,189,R,R,791,1,R
163,53,43,172,195,D,D,735,3,D
163,53,44,407,226,L,R,792,0,R
163,53,45,173,218,U,U,759,2,U
163,53,46,454,192,L,D,775,2,D
163,53,47,116,234,D,D,625,5,L
163,53,48,417,238,U,U,991,5,U
163,53,49,232,289,U,U,1047,0,U
163,53,50,407,258,U,U,639,4,U
163,53,51,128,171,R,L,1223,6,L
163,53,52,471,205,R,R,791,0,R
163,53,53,222,246,D,L,767,2,L
163,53,54,447,232,U,U,648,2,U
163,53,55,267,216,L,L,695,5,L
163,53,56,489,269,U,U,648,6,U
163,53,57,225,284,D,R,848,5,R
163,53,58,442,225,R,R,658,4,D
163,54,1,484,225,D,D,885,6,D
163,54,2,284,209,L,L,717,1,L
163,54,3,434,230,D,L,711,1,L
163,54,4,263,272,R,R,736,3,R
163,54,5,457,248,D,D,815,4,D
163,54,6,233,256,L,L,703,0,L
163,54,7,502,246,R,L,760,3,L
163,54,8,127,203,D,L,839,4,L
163,54,9,474,289,L,L,719,2,L
163,54,10,292,218,U,R,896,3,R
163,54,11,447,278,D,U,768,6,U
163,54,12,256,170,U,U,784,1,U
163,54,13,386,222,R,R,743,0,R
163,54,14,218,257,U,R,807,2,R
163,54,15,357,286,L,L,655,3,L
163,54,16,522,229,D,D,639,2,D
163,54,17,334,204,L,U,1032,2,U
163,54,18,156,257,U,R,768,1,R
163,54,19,495,244,D,D,727,5,U
163,54,20,283,264,R,R,910,2,R
163,54,21,450,216,R,D,799,1,D
163,54,22,132,178,D,D,696,2,D
163,54,23,416,179,R,R,600,0,R
163,54,24,198,269,R,R,704,3,R
163,54,25,454,179,U,D,888,0,D
163,54,26,138,242,R,R,744,5,R
163,54,27,337,258,D,D,1056,6,D
163,54,28,213,189,L,L,895,5,L
163,54,29,396,173,R,R,792,0,R
163,54,30,190,189,D,U,767,0,U
163,54,31,368,238,L,R,800,0,R
163,54,32,517,209,R,L,768,1,L
163,54,33,247,226,R,U,960,4,U
163,54,34,459,194,D,D,703,2,D
163,54,35,218,231,L,L,856,0,L
163,54,36,443,246,U,U,825,5,U
163,54,37,188,257,R,R,814,1,R
163,54,38,507,178,L,U,935,4,U
163,54,39,282,197,U,D,833,4,D
163,54,40,441,259,D,L,837,4,L
163,54,41,216,267,U,L,647,3,L
163,54,42,460,272,U,U,680,1,U
163,54,43,160,244,R,R,664,1,R
163,54,44,501,289,R,R,694,0,R
163,54,45,291,259,U,D,680,4,D
163,54,46,502,257,L,D,703,2,D
163,54,47,191,220,R,L,800,1,L
163,54,48,512,193,L,D,824,1,D
163,54,49,364,261,D,D,727,4,L
163,54,50,180,183,D,D,848,6,D
163,54,51,503,206,R,D,824,6,D
163,54,52,316,289,L,U,1030,3,U
163,54,53,128,278,U,U,911,4,U
163,54,54,443,285,D,D,599,1,D
163,54,55,180,220,L,D,800,3,D
163,54,56,376,250,U,R,762,1,R
163,54,57,152,240,U,D,662,1,D
163,55,1,272,290,U,U,1083,1,U
163,55,2,476,244,D,L,779,1,L
163,55,3,141,266,U,R,752,4,R
163,55,4,445,196,R,U,1095,1,U
163,55,5,253,239,R,R,854,6,R
163,55,6,402,235,D,U,768,6,U
163,55,7,194,211,R,L,896,0,L
163,55,8,429,284,R,R,784,5,R
163,55,9,116,183,R,L,808,2,L
163,55,10,314,245,D,D,704,2,D
163,55,11,471,264,U,R,1024,2,R
163,55,12,296,232,L,L,727,6,L
163,55,13,130,190,D,D,905,3,D
163,55,14,433,285,L,L,758,6,L
163,55,15,192,286,D,L,778,0,L
163,55,16,382,177,U,R,983,3,R
163,55,17,184,248,L,L,735,4,L
163,55,18,452,246,D,U,929,3,U
163,55,19,153,207,D,L,768,4,L
163,55,20,343,250,R,R,670,5,R
163,55,21,210,200,L,L,776,3,L
163,55,22,512,270,R,U,1079,5,U
163,55,23,124,200,U,R,767,5,R
163,55,24,313,222,U,U,760,1,U
163,55,25,136,221,U,D,823,3,D
163,55,26,313,197,D,L,887,5,L
163,55,27,131,247,R,R,834,2,R
163,55,28,349,198,L,L,663,5,L
163,55,29,211,251,D,R,815,1,R
163,55,30,520,237,L,L,648,0,L
163,55,31,209,213,L,U,737,4,U
163,55,32,422,185,U,L,743,3,U
163,55,33,249,176,R,R,902,1,R
163,55,34,517,174,R,R,744,2,R
163,55,35,268,180,D,D,656,0,D
163,55,36,126,254,U,R,1000,3,R
163,55,37,433,240,R,R,680,3,R
163,55,38,207,205,L,R,790,3,R
163,55,39,476,219,U,D,1104,3,D
163,55,40,149,204,U,R,832,2,R
163,55,41,478,222,D,L,848,0,L
163,55,42,161,218,R,L,719,3,L
163,55,43,314,229,R,L,744,4,L
163,55,44,116,241,R,U,1039,3,U
163,55,45,261,227,U,U,721,5,U
163,55,46,450,220,U,D,831,3,D
163,55,47,305,184,R,D,976,0,D
163,55,48,140,226,L,L,833,5,D
163,55,49,498,193,R,D,903,2,U
163,55,50,265,274,D,D,960,1,D
163,55,51,468,223,L,D,750,0,D
163,55,52,143,213,D,D,717,6,D
163,55,53,473,262,L,R,805,6,R
163,55,54,284,176,D,R,1004,4,R
163,56,1,417,188,D,L,800,4,L
163,56,2,217,275,U,U,923,5,U
163,56,3,503,197,U,U,712,3,U
163,56,4,281,211,R,R,742,3,R
163,56,5,151,267,U,U,775,5,U
163,56,6,504,237,U,U,872,5,U
163,56,7,149,224,U,D,728,6,D
163,56,8,335,245,D,D,714,5,D
163,56,9,186,255,R,R,766,5,R
163,56,10,514,229,L,R,1025,5,R
163,56,11,266,206,L,D,970,1,D
163,56,12,445,266,L,R,749,0,R
163,56,13,115,178,L,D,1200,4,D
163,56,14,299,260,R,U,775,0,U
163,56,15,126,246,D,D,848,1,D
163,56,16,262,210,D,U,694,6,U
163,56,17,459,246,L,R,816,0,R
163,56,18,132,254,L,R,854,5,R
163,56,19,463,264,D,U,761,0,U
163,56,20,123,206,L,R,685,1,R
163,56,21,280,191,R,D,807,4,D
163,56,22,460,216,U,U,623,6,U
163,56,23,243,198,L,D,798,0,D
163,56,24,423,217,U,U,738,0,U
163,56,25,271,242,D,D,831,6,D
163,56,26,407,279,R,U,952,4,U
163,56,27,270,199,U,U,904,0,U
163,56,28,147,289,R,R,856,5,R
163,56,29,414,279,U,U,799,1,U
163,56,30,269,283,R,R,695,3,R
163,56,31,423,182,L,R,808,4,R
163,56,32,167,232,R,L,1144,6,L
163,56,33,434,253,D,R,960,6,R
163,56,34,150,210,R,R,767,4,R
163,56,35,394,284,D,D,768,2,D
163,56,36,172,262,U,D,976,6,D
163,56,37,327,171,U,L,855,0,L
163,56,38,470,280,U,U,711,1,U
163,56,39,298,175,L,L,984,5,L
163,56,40,522,242,D,U,1248,3,U
163,56,41,333,251,R,L,992,2,L
163,56,42,507,197,L,R,825,2,R
163,56,43,223,189,D,D,758,1,D
163,56,44,410,261,D,D,695,0,D
163,56,45,252,287,L,L,688,2,L
163,56,46,498,281,R,R,719,1,R
163,56,47,397,184,L,U,704,0,U
163,56,48,262,278,U,D,865,4,D
163,56,49,385,199,R,R,757,5,R
163,56,50,152,238,U,U,688,2,U
163,56,51,333,192,L,U,952,3,U
163,56,52,187,280,D,D,640,2,D
163,56,53,436,214,R,D,1088,4,D
163,56,54,178,277,R,U,656,6,U
163,57,1,348,250,U,U,1024,5,U
163,57,2,153,221,L,D,1331,1,D
163,57,3,336,219,R,R,704,0,R
163,57,4,131,171,R,R,647,0,R
163,57,5,314,236,L,U,815,6,U
163,57,6,475,181,L,L,784,1,L
163,57,7,309,205,R,L,952,4,L
163,57,8,521,210,D,D,769,0,D
163,57,9,363,220,D,U,831,2,U
163,57,10,149,220,L,R,912,2,R
163,57,11,517,187,R,R,784,2,R
163,57,12,336,201,U,U,815,4,U
163,57,13,480,235,D,D,680,6,D
163,57,14,232,277,R,R,688,0,R
163,57,15,505,173,L,L,775,3,L
163,57,16,309,267,R,R,887,5,R
163,57,17,166,189,L,L,831,6,L
163,57,18,496,248,U,U,727,6,U
163,57,19,312,179,R,U,880,4,U
163,57,20,115,215,U,D,824,2,D
163,57,21,454,208,L,L,743,5,L
163,57,22,146,254,U,R,824,0,R
163,57,23,418,261,R,R,704,0,R
163,57,24,144,221,U,R,848,0,R
163,57,25,454,287,L,L,697,2,L
163,57,26,197,226,D,L,831,4,L
163,57,27,342,200,D,U,1359,5,U
163,57,28,181,210,U,U,841,2,U
163,57,29,382,215,D,R,1151,5,R
163,57,30,207,289,D,U,728,6,U
163,57,31,409,245,L,U,783,1,U
163,57,32,191,264,D,D,991,6,D
163,57,33,516,207,U,D,920,0,D
163,57,34,193,195,R,D,842,6,D
163,57,35,337,188,U,U,855,3,U
163,57,36,138,181,L,L,671,6,L
163,57,37,278,274,R,U,1016,1,U
163,57,38,479,252,D,L,816,5,L
163,57,39,147,172,U,U,784,1,U
163,57,40,360,272,R,L,736,0,U
163,57,41,193,210,U,U,896,1,U
163,57,42,433,218,R,U,832,3,U
163,57,43,157,204,D,U,688,2,U
163,57,44,395,190,U,U,649,0,U
163,57,45,247,188,L,U,935,4,D
163,57,46,445,194,R,L,1119,2,L
163,57,47,285,273,R,R,800,4,R
163,57,48,523,217,U,U,1152,5,U
163,57,49,148,216,R,R,785,6,R
163,57,50,509,181,L,L,776,3,L
163,57,51,152,174,R,U,726,2,U
163,57,52,434,209,R,L,849,6,L
163,58,1,250,189,U,U,851,1,U
163,58,2,393,252,U,U,764,3,U
163,58,3,222,195,D,L,789,5,L
163,58,4,417,235,U,D,905,5,D
163,58,5,180,283,D,D,711,5,D
163,58,6,442,206,L,U,864,5,U
163,58,7,188,234,R,R,728,2,R
163,58,8,466,174,R,L,848,2,L
163,58,9,213,274,U,U,639,4,U
163,58,10,436,190,R,L,751,3,L
163,58,11,233,191,L,R,888,0,R
163,58,12,378,240,L,R,848,2,R
163,58,13,206,282,D,D,752,5,D
163,58,14,419,179,D,D,664,0,D
163,58,15,196,172,L,L,816,6,L
163,58,16,482,253,L,D,888,3,D
163,58,17,245,225,L,R,904,0,R
163,58,18,415,231,L,L,744,6,L
163,58,19,255,184,D,D,655,5,D
163,58,20,399,210,D,L,672,1,L
163,58,21,129,210,L,U,650,6,U
163,58,22,339,195,R,D,749,4,D
163,58,23,167,268,L,U,951,1,U
163,58,24,513,192,L,R,776,1,R
163,58,25,367,257,L,U,775,2,U
163,58,26,145,226,L,L,791,6,L
163,58,27,354,274,U,U,671,1,U
163,58,28,141,276,R,D,1001,0,D
163,58,29,378,185,D,D,615,2,L
163,58,30,163,203,L,L,768,0,L
163,58,31,481,186,R,R,688,0,R
163,58,32,315,226,L,L,647,5,L
163,58,33,509,282,D,D,722,5,D
163,58,34,173,179,L,L,662,6,L
163,58,35,318,235,U,U,672,5,U
163,58,36,130,278,D,D,687,1,D
163,58,37,481,281,D,L,767,2,L
163,58,38,213,209,D,R,824,5,R
163,58,39,358,203,R,D,736,1,D
163,58,40,162,264,R,R,1167,3,R
163,58,41,333,195,L,L,799,0,R
163,58,42,485,227,L,L,927,6,L
163,58,43,155,190,L,L,704,6,L
163,58,44,378,286,D,D,672,6,D
163,58,45,117,189,U,L,792,4,L
163,58,46,400,227,R,R,807,1,R
163,58,47,143,288,D,D,1031,4,D
163,58,48,368,253,R,U,671,1,U
163,58,49,221,244,U,U,712,0,U
163,58,50,355,171,L,L,1015,6,L
163,58,51,158,228,D,D,689,0,D
163,58,52,518,284,R,D,1056,4,D
163,58,53,258,221,D,R,769,4,R
163,58,54,513,280,U,U,736,5,U
163,58,55,206,269,D,U,782,6,U
163,58,56,513,279,L,D,1041,3,D
163,58,57,312,277,L,L,632,6,L
163,59,1,299,253,L,R,643,5,R
163,59,2,479,290,D,U,987,5,U
163,59,3,160,249,L,R,807,5,R
163,59,4,349,230,D,L,919,3,L
163,59,5,513,179,U,U,815,2,U
163,59,6,407,277,R,U,890,0,U
163,59,7,142,203,D,D,790,2,D
163,59,8,406,232,U,R,777,5,R
163,59,9,129,229,R,R,623,3,R
163,59,10,362,264,D,R,775,0,R
163,59,11,188,197,L,L,744,0,L
163,59,12,378,252,R,D,912,6,D
163,59,13,169,202,D,R,822,2,R
163,59,14,352,281,R,R,889,6,R
163,59,15,187,279,R,U,926,5,U
163,59,16,453,175,L,R,1592,3,R
163,59,17,195,188,D,D,592,1,D
163,59,18,385,282,D,L,793,0,L
163,59,19,166,216,L,D,695,0,D
163,59,20,416,236,U,U,687,6,U
163,59,21,271,184,L,L,695,3,L
163,59,22,130,223,U,R,1007,2,R
163,59,23,459,194,D,L,711,0,L
163,59,24,190,191,R,R,792,4,R
163,59,25,385,259,R,U,775,6,U
163,59,26,162,281,L,D,832,1,D
163,59,27,514,282,D,U,752,3,U
163,59,28,177,189,L,R,1007,6,R
163,59,29,512,177,R,R,888,4,R
163,59,30,189,260,L,D,992,6,D
163,59,31,324,189,U,L,928,6,L
163,59,32,479,285,D,R,1047,5,R
163,59,33,121,243,R,R,736,4,R
163,59,34,389,266,R,D,848,0,D
163,59,35,196,249,D,R,791,4,R
163,59,36,351,267,U,R,936,0,R
163,59,37,209,207,R,L,1119,5,L
163,59,38,455,266,R,U,864,3,U
163,59,39,141,258,L,L,743,0,L
163,59,40,472,195,R,D,895,1,D
163,59,41,167,200,U,D,800,2,D
163,59,42,360,224,L,L,888,4,L
163,59,43,212,176,R,U,889,0,U
163,59,44,486,188,D,D,768,4,D
163,59,45,133,190,U,D,719,0,D
163,59,46,340,181,R,U,1152,0,U
163,59,47,220,288,L,D,871,2,D
163,59,48,494,201,D,D,746,3,D
163,59,49,147,284,U,D,815,5,D
163,59,50,316,248,U,U,672,6,U
163,59,51,480,187,L,L,648,1,L
163,59,52,176,201,D,U,936,3,U
163,59,53,462,202,U,L,677,1,L
163,60,1,174,263,L,R,659,1,R
163,60,2,485,215,L,L,830,4,L
163,60,3,261,241,U,L,785,5,L
163,60,4,490,250,U,U,735,1,U
163,60,5,373,172,D,D,704,5,D
163,60,6,129,226,R,R,702,5,R
163,60,7,491,205,D,D,735,1,D
163,60,8,218,195,L,L,752,4,L
163,60,9,452,181,U,L,967,6,L
163,60,10,281,272,D,U,736,6,U
163,60,11,495,184,R,D,761,2,D
163,60,12,387,278,L,L,697,4,L
163,60,13,167,248,D,D,725,4,D
163,60,14,388,186,U,U,625,1,U
163,60,15,231,198,U,D,823,4,D
163,60,16,423,215,R,R,640,3,R
163,60,17,216,200,R,R,705,0,R
163,60,18,505,211,U,U,649,0,U
163,60,19,236,210,R,U,854,1,U
163,60,20,422,215,L,U,951,5,U
163,60,21,227,215,R,R,666,2,R
163,60,22,404,208,U,L,687,5,L
163,60,23,136,270,R,L,863,3,L
163,60,24,517,174,U,U,703,5,U
163,60,25,359,180,L,L,592,1,L
163,60,26,516,170,D,D,591,5,D
163,60,27,148,213,L,L,672,1,L
163,60,28,386,289,D,D,696,4,D
163,60,29,196,237,U,D,776,5,D
163,60,30,504,247,L,U,928,1,U
163,60,31,339,184,U,U,681,0,U
163,60,32,521,178,D,D,735,5,U
163,60,33,183,254,L,L,704,0,L
163,60,34,451,180,R,R,1047,3,R
163,60,35,240,201,D,D,696,5,D
163,60,36,414,288,L,L,721,3,L
163,60,37,181,180,D,U,758,2,U
163,60,38,408,259,R,R,744,6,R
163,60,39,163,254,D,D,640,6,D
163,60,40,335,234,U,L,734,6,L
163,60,41,123,222,R,R,703,3,R
163,60,42,488,182,L,R,919,4,R
163,60,43,339,274,U,U,673,2,U
163,60,44,138,256,R,L,800,0,L
163,60,45,316,237,D,U,825,2,U
163,60,46,478,192,R,R,638,5,R
163,60,47,122,257,L,R,935,6,R
163,60,48,435,245,R,R,638,1,R
163,60,49,255,247,D,D,705,3,R
163,60,50,419,187,U,L,848,2,L
163,60,51,156,243,D,L,792,6,L
163,60,52,426,241,R,R,600,1,R
163,60,53,244,214,D,L,713,2,L
163,60,54,469,248,R,D,838,4,D
163,60,55,306,269,L,L,689,3,L
163,60,56,125,196,U,U,674,6,U
163,60,57,344,200,U,U,717,5,U
163,60,58,202,245,D,L,695,0,L
163,60,59,429,281,L,D,872,5,R
163,60,60,135,206,U,R,368,0,U
163,61,1,238,184,D,D,739,0,D
163,61,2,486,244,R,R,771,3,R
163,61,3,129,278,R,R,680,2,R
163,61,4,379,239,R,R,656,5,R
163,61,5,186,197,R,D,832,1,D
163,61,6,413,233,L,R,862,4,R
163,61,7,117,284,R,L,720,2,L
163,61,8,440,200,U,R,993,5,R
163,61,9,270,213,U,U,695,0,U
163,61,10,458,283,R,R,712,3,R
163,61,11,115,262,R,R,640,3,R
163,61,12,402,273,L,L,720,4,L
163,61,13,210,263,R,D,872,4,D
163,61,14,522,279,R,U,759,2,U
163,61,15,320,228,U,U,599,0,U
163,61,16,462,241,D,U,954,0,U
163,61,17,257,205,U,L,824,4,L
163,61,18,380,281,L,L,751,3,L
163,61,19,121,247,D,U,872,4,U
163,61,20,432,186,U,D,936,2,D
163,61,21,295,288,R,D,960,5,D
163,61,22,136,181,U,R,817,4,U
163,61,23,509,256,U,U,742,2,U
163,61,24,347,193,D,U,943,5,U
163,61,25,480,280,U,D,801,5,D
163,61,26,151,252,D,U,878,4,U
163,61,27,372,205,R,L,873,5,L
163,61,28,189,232,L,R,942,6,R
163,61,29,513,233,D,U,913,0,U
163,61,30,214,217,U,U,847,2,U
163,61,31,405,218,U,D,751,5,D
163,61,32,126,289,U,U,655,2,U
163,61,33,344,236,L,R,881,5,R
163,61,34,514,171,R,R,774,6,R
163,61,35,297,280,U,U,793,4,U
163,61,36,140,261,D,D,695,1,D
163,61,37,399,262,D,R,728,1,R
163,61,38,193,174,L,L,679,2,L
163,61,39,308,254,L,L,712,1,L
163,61,40,495,218,D,D,785,3,D
163,61,41,312,237,R,R,950,5,R
163,61,42,133,213,U,U,968,4,U
163,61,43,372,186,U,U,759,2,U
163,61,44,515,278,U,R,1015,3,R
163,61,45,310,261,L,L,673,1,L
163,61,46,454,232,L,L,736,1,L
163,61,47,248,220,U,U,919,2,U
163,61,48,506,265,U,R,728,5,R
163,61,49,303,275,D,R,784,0,R
163,61,50,504,180,L,U,960,3,U
163,61,51,245,192,L,D,937,4,D
163,61,52,433,237,L,L,656,4,L
163,61,53,274,237,R,R,632,4,R
163,61,54,438,195,L,L,623,2,L
163,61,55,278,275,R,R,671,0,R
163,61,56,167,173,L,R,1000,0,R
163,62,1,255,221,R,R,704,5,R
163,62,2,487,252,R,R,630,1,R
163,62,3,206,254,D,D,800,6,D
163,62,4,430,212,R,R,678,5,R
163,62,5,142,203,L,U,959,5,U
163,62,6,357,177,L,D,864,5,D
163,62,7,518,251,R,D,1015,4,D
163,62,8,140,185,L,D,736,6,D
163,62,9,423,220,U,U,760,6,U
163,62,10,235,191,R,L,975,6,L
163,62,11,459,231,D,L,746,0,L
163,62,12,310,245,R,R,679,1,R
163,62,13,469,228,R,R,654,2,R
163,62,14,180,175,L,R,671,1,L
163,62,15,404,227,U,U,825,6,U
163,62,16,120,265,R,U,1001,5,U
163,62,17,399,230,R,L,718,6,L
163,62,18,226,227,D,D,736,1,D
163,62,19,457,268,U,D,745,2,D
163,62,20,243,276,L,D,973,6,D
163,62,21,506,214,U,L,752,4,L
163,62,22,319,260,L,D,983,5,D
163,62,23,513,177,L,L,744,2,L
163,62,24,228,242,D,L,849,6,L
163,62,25,376,213,U,D,839,2,D
163,62,26,224,195,D,U,1031,3,U
163,62,27,372,181,U,U,920,5,U
163,62,28,157,212,D,D,752,3,D
163,62,29,445,174,R,U,904,4,U
163,62,30,157,218,L,R,696,3,R
163,62,31,339,188,L,L,696,0,L
163,62,32,189,239,D,L,928,5,L
163,62,33,421,229,U,D,838,5,D
163,62,34,210,170,U,D,945,6,D
163,62,35,418,255,D,D,664,2,D
163,62,36,215,282,D,D,631,0,D
163,62,37,419,219,D,D,672,2,D
163,62,38,174,235,D,U,921,1,U
163,62,39,424,287,L,L,701,5,L
163,62,40,189,256,U,R,1025,3,R
163,62,41,339,184,D,R,710,0,U
163,62,42,477,258,L,D,914,5,D
163,62,43,201,270,R,D,725,2,D
163,62,44,434,190,U,L,800,5,U
163,62,45,130,240,L,U,1127,3,U
163,62,46,296,241,U,L,735,4,L
163,62,47,142,284,L,U,751,3,U
163,62,48,445,283,U,R,945,5,R
163,62,49,321,176,D,D,1016,3,D
163,62,50,150,240,L,L,670,0,L
163,62,51,396,199,R,R,769,6,R
163,62,52,119,216,D,D,766,3,D
163,62,53,514,271,R,R,699,2,R
163,62,54,233,173,L,D,973,4,D
163,62,55,397,267,L,R,713,4,R
163,63,1,313,203,R,L,1058,5,L
163,63,2,117,198,R,D,1228,1,D
163,63,3,445,173,U,R,895,2,R
163,63,4,188,242,U,U,719,6,U
163,63,5,396,215,L,L,760,6,L
163,63,6,192,290,U,R,864,4,R
163,63,7,403,238,D,D,704,6,D
163,63,8,161,182,L,L,712,5,L
163,63,9,422,210,R,U,784,4,U
163,63,10,244,244,R,D,815,3,D
163,63,11,519,252,D,R,872,4,R
163,63,12,176,234,D,R,808,5,R
163,63,13,350,236,D,D,714,1,D
163,63,14,504,181,U,U,807,4,U
163,63,15,170,202,L,L,678,4,L
163,63,16,385,177,R,U,873,1,U
163,63,17,170,228,R,R,766,1,R
163,63,18,415,220,U,D,711,5,D
163,63,19,218,243,D,D,584,2,D
163,63,20,443,225,R,U,888,1,U
163,63,21,274,188,R,R,719,1,R
163,63,22,418,197,L,D,791,1,D
163,63,23,264,197,L,L,632,0,L
163,63,24,408,267,L,L,696,5,L
163,63,25,247,236,U,U,751,4,U
163,63,26,395,206,L,R,831,6,R
163,63,27,159,227,L,L,784,4,L
163,63,28,409,271,D,D,728,2,D
163,63,29,244,273,D,D,712,1,D
163,63,30,514,224,R,L,942,0,L
163,63,31,221,288,U,R,688,0,R
163,63,32,422,181,U,L,776,3,R
163,63,33,251,278,U,D,879,4,D
163,63,34,463,287,L,R,831,2,R
163,63,35,170,235,L,R,864,3,R
163,63,36,301,285,D,D,696,5,L
163,63,37,452,179,U,R,983,0,R
163,63,38,221,275,D,D,783,6,D
163,63,39,423,248,D,L,768,3,L
163,63,40,239,281,R,U,976,1,U
163,63,41,520,260,L,L,783,0,L
163,63,42,185,263,L,L,640,3,L
163,63,43,406,232,U,D,776,4,D
163,63,44,173,289,U,U,847,3,U
163,63,45,412,245,L,D,831,2,D
163,63,46,187,200,U,U,821,1,U
163,63,47,387,258,L,L,655,5,L
163,63,48,238,179,L,L,888,4,L
163,63,49,463,187,L,L,629,4,L
163,63,50,305,246,R,D,777,6,D
163,63,51,515,222,D,L,732,0,D
163,63,52,157,251,R,D,700,0,R
163,63,53,319,247,R,R,568,4,R
163,63,54,468,189,R,R,553,4,R
163,63,55,254,195,R,L,727,2,L
163,63,56,474,214,L,L,831,1,L
163,63,57,178,240,L,U,960,5,U
163,64,1,349,281,L,R,842,2,R
163,64,2,117,250,R,L,870,4,L
163,64,3,491,178,D,U,928,0,U
163,64,4,139,197,D,D,816,1,D
163,64,5,476,243,R,R,840,2,R
163,64,6,165,245,U,U,671,1,U
163,64,7,328,278,U,R,848,0,R
163,64,8,127,197,R,R,648,2,R
163,64,9,499,217,R,R,718,3,R
163,64,10,165,267,D,D,687,2,D
163,64,11,457,206,D,R,698,1,R
163,64,12,207,192,R,R,670,5,R
163,64,13,490,181,D,D,672,1,D
163,64,14,129,227,D,D,655,5,D
163,64,15,400,199,D,D,823,1,D
163,64,16,233,241,U,U,633,2,U
163,64,17,427,185,L,D,855,4,D
163,64,18,224,211,L,L,663,0,L
163,64,19,403,283,L,L,727,5,L
163,64,20,184,244,U,U,711,1,U
163,64,21,368,227,D,D,663,6,D
163,64,22,224,219,L,L,744,5,L
163,64,23,465,245,U,U,735,1,U
163,64,24,313,197,R,D,760,5,D
163,64,25,117,170,D,R,792,4,R
163,64,26,258,283,R,U,890,3,U
163,64,27,510,238,U,U,822,3,U
163,64,28,198,215,R,U,799,5,U
163,64,29,453,254,R,U,816,6,U
163,64,30,133,181,U,U,726,6,U
163,64,31,510,183,R,R,760,5,R
163,64,32,236,189,D,D,663,5,U
163,64,33,438,241,L,R,847,4,R
163,64,34,158,217,U,D,1096,6,D
163,64,35,362,191,R,R,634,0,R
163,64,36,186,268,L,L,702,1,L
163,64,37,436,224,L,U,824,0,U
163,64,38,153,180,U,R,865,3,R
163,64,39,296,195,U,U,720,5,U
163,64,40,126,258,R,R,696,1,R
163,64,41,405,248,L,L,799,6,L
163,64,42,157,277,D,R,839,3,R
163,64,43,300,257,D,U,759,2,U
163,64,44,165,200,U,L,879,3,U
163,64,45,384,213,D,D,799,3,D
163,64,46,232,204,L,L,855,6,L
163,64,47,512,215,U,U,1216,6,U
163,64,48,363,193,L,U,848,6,U
163,64,49,166,267,L,U,790,6,U
163,64,50,432,268,R,L,1144,5,L
163,64,51,221,236,D,D,816,2,D
163,64,52,476,263,U,R,864,0,R
163,64,53,135,190,L,D,841,1,D
163,64,54,349,289,L,L,719,2,L
163,64,55,177,170,L,L,655,1,L
163,64,56,464,266,U,R,1030,4,R
163,65,1,325,263,D,R,676,2,R
163,65,2,168,224,U,U,741,0,U
163,65,3,397,182,D,D,759,4,D
163,65,4,135,225,L,L,656,2,L
163,65,5,370,227,U,D,872,1,D
163,65,6,207,258,R,D,783,2,D
163,65,7,443,289,U,R,913,2,R
163,65,8,124,286,R,R,744,6,R
163,65,9,397,258,R,R,720,2,R
163,65,10,151,194,L,L,752,6,L
163,65,11,369,269,L,R,1024,5,R
163,65,12,226,284,R,R,702,2,R
163,65,13,387,239,D,U,761,6,U
163,65,14,122,201,R,L,671,6,L
163,65,15,419,197,L,U,1136,3,U
163,65,16,193,170,U,D,856,4,D
163,65,17,439,187,L,L,744,2,L
163,65,18,192,233,D,D,671,5,D
163,65,19,373,270,L,U,843,0,U
163,65,20,507,208,R,R,637,1,R
163,65,21,343,188,U,U,887,6,U
163,65,22,198,256,R,U,864,6,U
163,65,23,487,226,U,U,744,2,U
163,65,24,210,222,U,U,736,4,U
163,65,25,447,203,R,R,943,5,R
163,65,26,162,253,L,L,927,5,L
163,65,27,350,287,L,L,663,0,L
163,65,28,207,287,L,L,672,2,L
163,65,29,389,231,L,R,792,5,R
163,65,30,126,217,L,R,824,5,R
163,65,31,331,284,U,R,895,5,R
163,65,32,218,171,R,R,119,2,R
163,65,33,411,245,R,R,1361,4,R
163,65,34,123,194,D,D,808,2,D
163,65,35,449,196,D,D,680,6,D
163,65,36,217,240,R,D,695,2,D
163,65,37,439,192,U,D,1088,4,D
163,65,38,290,178,R,L,712,6,L
163,65,39,475,227,R,D,632,2,D
163,65,40,264,218,R,D,849,3,D
163,65,41,520,187,L,R,1183,3,R
163,65,42,214,265,D,D,775,4,D
163,65,43,470,266,L,U,624,6,U
163,65,44,253,196,L,D,752,6,D
163,65,45,457,215,U,R,936,6,R
163,65,46,195,203,D,R,679,0,R
163,65,47,374,192,U,U,752,0,U
163,65,48,222,268,U,R,752,2,R
163,65,49,393,238,L,L,681,2,L
163,65,50,120,260,U,D,926,4,D
163,65,51,352,281,U,U,719,4,U
163,65,52,155,239,L,D,791,1,D
163,65,53,446,185,R,R,600,2,R
163,65,54,162,274,R,R,703,2,R
163,65,55,410,188,U,D,705,1,D
163,65,56,232,288,D,L,808,5,L
163,65,57,362,206,D,L,741,0,L
163,66,1,474,195,U,U,809,1,U
163,66,2,162,180,U,U,673,1,U
163,66,3,430,255,U,D,824,4,D
163,66,4,189,179,U,U,712,3,U
163,66,5,432,241,D,D,695,1,D
163,66,6,221,281,R,R,672,5,R
163,66,7,449,225,D,L,1018,4,L
163,66,8,300,240,D,L,718,1,L
163,66,9,456,229,R,R,704,6,R
163,66,10,304,263,D,D,607,2,D
163,66,11,510,212,U,R,833,1,R
163,66,12,237,215,D,D,751,6,D
163,66,13,483,273,U,U,703,3,U
163,66,14,127,217,R,R,616,6,D
163,66,15,314,174,D,D,669,0,D
163,66,16,506,245,D,D,647,1,D
163,66,17,201,228,U,U,791,2,U
163,66,18,391,241,R,L,719,6,L
163,66,19,158,241,R,U,1119,5,U
163,66,20,397,259,L,D,832,1,D
163,66,21,269,170,L,D,903,0,D
163,66,22,508,283,L,U,1136,1,U
163,66,23,312,190,R,R,655,4,R
163,66,24,522,173,L,L,751,2,L
163,66,25,139,226,D,L,968,3,L
163,66,26,482,212,L,L,888,3,L
163,66,27,150,289,U,R,856,5,R
163,66,28,291,189,R,R,744,5,R
163,66,29,448,176,U,R,896,3,R
163,66,30,161,170,D,L,936,6,L
163,66,31,408,240,R,D,728,6,D
163,66,32,185,262,L,L,767,6,L
163,66,33,393,272,R,R,793,4,R
163,66,34,228,289,R,R,775,1,R
163,66,35,427,275,R,L,824,1,L
163,66,36,216,213,D,U,783,0,U
163,66,37,419,250,U,D,671,0,D
163,66,38,170,269,L,L,688,6,L
163,66,39,326,238,L,L,951,5,L
163,66,40,166,278,R,R,752,1,R
163,66,41,410,284,U,U,726,1,U
163,66,42,177,265,L,L,743,3,L
163,66,43,414,283,D,D,664,3,D
163,66,44,234,199,D,D,990,4,D
163,66,45,461,194,D,L,928,2,L
163,66,46,240,179,L,D,1040,4,D
163,66,47,402,170,D,D,649,4,D
163,66,48,138,214,R,R,600,0,R
163,66,49,477,218,U,U,735,5,U
163,66,50,176,275,R,R,640,6,R
163,66,51,384,175,D,U,792,1,U
163,66,52,120,214,D,D,624,1,D
163,66,53,494,248,L,L,728,4,L
163,66,54,332,179,R,U,816,5,U
163,66,55,500,273,R,D,784,2,D
163,66,56,297,274,U,U,641,1,U
163,66,57,464,216,L,L,655,4,D
163,67,1,462,230,R,U,873,0,U
163,67,2,185,286,R,D,1189,4,D
163,67,3,495,209,L,L,695,0,L
163,67,4,313,208,L,R,1159,0,R
163,67,5,512,230,U,L,1183,2,L
163,67,6,173,233,R,L,680,1,L
163,67,7,323,256,R,R,856,2,R
163,67,8,135,173,D,D,800,6,D
163,67,9,335,284,R,R,712,1,R
163,67,10,172,244,R,R,608,0,R
163,67,11,490,204,R,R,624,2,R
163,67,12,126,184,L,R,753,1,R
163,67,13,451,198,U,L,703,1,L
163,67,14,256,173,R,R,672,4,R
163,67,15,445,190,D,D,625,6,D
163,67,16,269,259,D,L,926,4,L
163,67,17,452,222,R,U,816,3,U
163,67,18,280,215,R,D,855,3,D
163,67,19,420,250,U,D,1007,2,D
163,67,20,220,209,R,D,848,6,D
163,67,21,413,237,U,U,719,4,U
163,67,22,119,269,L,R,1119,5,R
163,67,23,416,250,U,R,792,0,R
163,67,24,256,250,U,U,624,6,U
163,67,25,433,258,L,R,1008,2,R
163,67,26,119,285,U,U,711,2,U
163,67,27,480,220,L,D,729,5,U
163,67,28,162,226,R,R,813,4,R
163,67,29,490,252,U,L,832,4,L
163,67,30,236,194,D,L,808,0,L
163,67,31,467,176,L,L,727,5,L
163,67,32,181,178,U,U,823,4,U
163,67,33,495,268,U,U,760,0,U
163,67,34,144,215,D,D,743,3,D
163,67,35,512,265,D,D,656,2,D
163,67,36,391,189,U,U,1032,0,U
163,67,37,158,212,U,L,1000,0,L
163,67,38,307,262,L,L,784,4,L
163,67,39,524,175,D,U,832,1,U
163,67,40,354,172,R,R,806,5,R
163,67,41,162,276,R,U,712,6,U
163,67,42,449,224,L,L,711,6,L
163,67,43,182,264,U,R,727,4,R
163,67,44,507,281,D,D,680,6,D
163,67,45,366,256,D,U,848,4,U
163,67,46,208,279,R,D,825,1,D
163,67,47,468,171,U,L,760,0,L
163,67,48,180,266,R,R,679,1,R
163,67,49,457,205,U,L,753,5,L
163,67,50,124,188,R,R,790,5,R
163,67,51,437,286,R,L,903,2,L
163,67,52,268,231,R,L,695,4,L
163,67,53,486,170,U,U,680,2,U
163,67,54,177,215,U,L,856,6,L
163,67,55,385,217,L,L,711,0,L
163,68,1,520,205,L,L,700,2,L
163,68,2,156,203,D,D,738,3,D
163,68,3,316,175,L,D,879,4,D
163,68,4,145,245,U,R,729,4,R
163,68,5,501,283,R,R,701,3,R
163,68,6,149,277,L,L,712,2,L
163,68,7,418,245,R,D,800,3,D
163,68,8,278,273,R,L,847,4,L
163,68,9,146,173,L,L,832,2,L
163,68,10,497,178,D,R,792,3,R
163,68,11,147,206,D,U,728,4,U
163,68,12,506,224,R,D,792,2,D
163,68,13,123,207,R,U,808,5,U
163,68,14,248,274,U,U,1055,4,U
163,68,15,490,231,L,R,1008,4,R
163,68,16,249,219,U,U,712,6,U
163,68,17,493,253,L,L,671,0,L
163,68,18,165,250,D,D,687,3,D
163,68,19,412,251,D,D,679,4,D
163,68,20,275,173,U,U,656,6,U
163,68,21,372,285,U,L,800,2,L
163,68,22,121,183,D,D,662,2,D
163,68,23,300,214,L,L,647,0,L
163,68,24,520,280,R,R,648,4,R
163,68,25,129,242,D,D,673,0,D
163,68,26,287,191,R,D,917,2,D
163,68,27,124,180,U,U,815,3,U
163,68,28,513,239,L,L,743,4,L
163,68,29,322,281,D,L,863,1,L
163,68,30,475,175,L,D,799,2,D
163,68,31,344,265,U,U,711,1,U
163,68,32,144,189,U,R,871,6,R
163,68,33,305,177,R,R,648,4,R
163,68,34,474,251,L,U,912,4,U
163,68,35,264,220,D,U,1304,4,U
163,68,36,453,219,L,L,688,3,R
163,68,37,242,251,L,L,863,6,L
163,68,38,491,269,R,D,879,4,D
163,68,39,363,178,U,L,921,6,L
163,68,40,125,233,L,L,783,0,L
163,68,41,279,255,D,D,727,4,D
163,68,42,467,286,R,D,888,3,D
163,68,43,189,171,R,D,752,0,D
163,68,44,406,225,L,R,943,0,R
163,68,45,151,181,U,L,680,1,L
163,68,46,453,273,U,L,824,6,L
163,68,47,246,172,U,D,639,0,D
163,68,48,437,287,D,R,870,6,R
163,68,49,270,235,U,R,816,1,R
163,68,50,460,265,U,L,784,1,L
163,68,51,149,175,D,L,680,1,L
163,68,52,411,193,R,U,1247,3,U
163,68,53,116,286,L,L,600,2,L
163,68,54,446,200,D,D,703,4,D
163,68,55,136,242,L,L,624,0,L
163,68,56,361,280,L,D,759,1,U
163,69,1,394,234,L,L,714,6,L
163,69,2,169,240,U,U,796,6,U
163,69,3,347,225,U,L,815,6,L
163,69,4,520,190,R,D,727,2,D
163,69,5,137,211,L,L,720,3,L
163,69,6,271,273,U,U,656,6,U
163,69,7,417,241,U,R,752,1,R
163,69,8,166,223,L,U,752,1,U
163,69,9,449,204,D,U,1056,6,U
163,69,10,141,262,U,L,648,6,L
163,69,11,334,173,D,L,952,0,L
163,69,12,144,236,L,L,624,6,L
163,69,13,307,203,L,U,729,1,U
163,69,14,516,175,U,L,726,2,L
163,69,15,322,287,U,D,984,3,D
163,69,16,456,185,L,L,768,1,L
163,69,17,171,208,R,D,752,0,D
163,69,18,439,236,R,R,825,5,R
163,69,19,191,204,R,R,606,4,R
163,69,20,521,176,R,R,706,0,R
163,69,21,309,184,R,R,750,6,R
163,69,22,492,275,U,D,959,3,D
163,69,23,245,242,U,L,992,5,L
163,69,24,438,203,U,U,639,4,U
163,69,25,232,217,U,L,728,0,L
163,69,26,514,186,R,U,872,3,U
163,69,27,298,205,L,D,745,1,D
163,69,28,149,222,D,R,989,0,R
163,69,29,420,277,R,R,625,1,R
163,69,30,170,186,L,L,709,3,L
163,69,31,324,193,U,R,663,4,R
163,69,32,506,283,U,U,840,0,U
163,69,33,146,229,U,R,1063,5,R
163,69,34,388,268,R,L,689,3,L
163,69,35,144,195,L,D,878,3,D
163,69,36,289,219,L,L,808,2,L
163,69,37,491,215,L,L,767,5,L
163,69,38,310,263,U,U,824,4,U
163,69,39,137,207,U,U,1023,1,U
163,69,40,479,277,U,U,714,6,U
163,69,41,279,212,D,D,717,6,D
163,69,42,453,287,L,L,703,5,L
163,69,43,315,252,L,L,656,2,L
163,69,44,499,235,L,L,816,6,L
163,69,45,134,257,U,U,824,1,U
163,69,46,273,188,R,U,904,1,U
163,69,47,497,217,L,D,895,4,D
163,69,48,292,282,L,U,879,4,U
163,69,49,476,259,R,D,856,5,L
163,69,50,275,210,L,L,784,0,L
163,69,51,142,269,U,R,1349,6,R
163,69,52,268,189,U,L,748,2,L
163,69,53,150,278,R,R,715,5,R
163,69,54,367,186,R,L,1038,6,L
163,69,55,488,290,U,U,767,1,U
163,70,1,302,195,U,R,679,2,R
163,70,2,123,187,D,L,996,2,L
163,70,3,396,196,D,D,680,0,D
163,70,4,172,204,U,U,760,5,U
163,70,5,411,253,R,D,696,0,D
163,70,6,116,229,R,D,759,2,D
163,70,7,461,271,L,D,832,5,D
163,70,8,273,218,R,U,1000,0,U
163,70,9,464,201,U,U,856,5,U
163,70,10,213,195,D,U,800,2,U
163,70,11,491,211,L,L,775,5,L
163,70,12,201,255,U,D,736,6,D
163,70,13,373,201,D,D,688,1,D
163,70,14,209,206,R,D,759,2,D
163,70,15,380,227,R,L,735,1,L
163,70,16,186,284,D,L,855,6,L
163,70,17,374,269,D,U,919,3,U
163,70,18,180,281,L,L,671,5,L
163,70,19,491,183,U,U,727,2,U
163,70,20,118,207,R,R,719,3,R
163,70,21,485,238,R,R,752,5,R
163,70,22,162,216,R,U,656,4,U
163,70,23,460,215,R,R,694,3,R
163,70,24,319,261,D,D,704,5,U
163,70,25,468,218,D,D,926,3,D
163,70,26,120,172,D,D,1048,6,D
163,70,27,324,274,D,L,744,3,L
163,70,28,510,281,D,L,912,5,L
163,70,29,243,192,D,D,649,1,D
163,70,30,383,184,U,R,750,5,R
163,70,31,197,180,U,R,984,5,R
163,70,32,378,253,D,L,720,2,L
163,70,33,177,270,D,D,713,3,D
163,70,34,326,226,D,D,639,4,D
163,70,35,470,220,R,D,728,2,D
163,70,36,140,245,D,U,928,5,U
163,70,37,451,282,U,R,905,4,R
163,70,38,268,204,L,D,919,2,D
163,70,39,479,220,L,L,663,3,L
163,70,40,153,218,L,U,799,2,U
163,70,41,388,285,R,D,775,0,D
163,70,42,201,171,D,D,567,5,D
163,70,43,386,286,L,L,762,0,L
163,70,44,219,276,R,R,797,4,R
163,70,45,471,208,U,L,695,0,L
163,70,46,185,194,D,D,639,1,D
163,70,47,428,184,R,D,735,0,D
163,70,48,244,273,D,D,680,1,D
163,70,49,457,230,R,U,832,2,U
163,70,50,119,273,L,L,663,2,L
163,70,51,272,198,L,D,872,3,D
163,70,52,442,172,L,R,920,3,R
163,70,53,219,235,L,D,679,2,D
163,70,54,413,230,L,U,664,6,U
163,70,55,206,268,R,L,912,1,L
163,70,56,496,249,R,R,632,1,R
163,70,57,318,244,U,U,656,0,U
163,70,58,139,192,R,L,822,2,L
163,71,1,308,247,U,U,804,2,U
163,71,2,118,172,L,L,903,3,L
163,71,3,371,210,R,R,647,0,R
163,71,4,121,254,D,R,776,2,R
163,71,5,450,179,R,L,822,1,L
163,71,6,236,207,U,R,824,0,R
163,71,7,434,263,D,R,863,0,R
163,71,8,215,188,R,D,727,1,D
163,71,9,463,206,R,L,816,2,L
163,71,10,125,286,U,U,727,0,U
163,71,11,254,190,U,U,807,6,U
163,71,12,512,228,L,D,792,3,D
163,71,13,296,185,D,D,791,0,D
163,71,14,488,213,U,R,752,5,R
163,71,15,196,235,U,D,776,0,D
163,71,16,332,285,R,R,719,5,R
163,71,17,172,202,R,U,728,4,U
163,71,18,452,191,L,U,920,6,U
163,71,19,203,188,L,L,672,2,L
163,71,20,347,213,U,U,736,0,U
163,71,21,189,265,L,L,768,4,L
163,71,22,468,218,U,L,759,4,L
163,71,23,183,258,U,L,744,1,L
163,71,24,518,201,U,L,751,4,L
163,71,25,358,185,R,D,1033,3,D
163,71,26,174,286,U,R,814,2,R
163,71,27,446,278,D,D,704,2,D
163,71,28,200,282,L,L,712,5,L
163,71,29,445,266,D,R,871,5,R
163,71,30,301,187,R,U,826,6,U
163,71,31,152,261,R,D,895,2,D
163,71,32,413,242,R,D,830,4,D
163,71,33,252,234,D,D,791,4,D
163,71,34,470,181,D,D,807,1,D
163,71,35,233,268,L,L,743,2,L
163,71,36,461,192,U,L,871,2,L
163,71,37,216,189,D,D,759,1,D
163,71,38,344,246,D,D,640,2,D
163,71,39,519,281,D,D,744,3,D
163,71,40,151,257,L,L,896,5,L
163,71,41,393,238,U,R,1054,6,R
163,71,42,181,262,U,L,704,1,L
163,71,43,471,185,L,L,704,0,L
163,71,44,187,192,U,L,704,3,L
163,71,45,511,209,L,D,816,4,D
163,71,46,193,289,D,D,824,1,D
163,71,47,401,189,D,D,608,5,D
163,71,48,116,283,U,R,1000,1,R
163,71,49,287,221,L,R,1016,5,R
163,71,50,452,264,U,U,688,2,U
163,71,51,190,214,U,U,624,2,U
163,71,52,489,186,R,R,744,1,R
163,71,53,124,209,U,U,808,6,U
163,71,54,445,183,U,U,840,4,U
163,71,55,122,224,R,R,704,6,R
163,71,56,429,211,D,D,602,0,D
163,71,57,279,231,D,D,669,5,D
163,72,1,418,228,R,D,1013,6,D
163,72,2,242,186,U,U,821,5,U
163,72,3,509,220,R,L,932,1,L
163,72,4,139,288,L,U,959,1,U
163,72,5,312,175,L,L,656,3,L
163,72,6,156,284,U,U,736,5,U
163,72,7,484,266,D,D,648,5,D
163,72,8,237,289,U,D,921,1,D
163,72,9,438,219,R,R,687,6,R
163,72,10,148,174,U,D,808,2,D
163,72,11,305,263,D,D,768,4,D
163,72,12,497,218,D,D,823,3,D
163,72,13,148,267,L,D,784,4,D
163,72,14,380,271,R,D,856,5,D
163,72,15,155,229,D,D,727,1,D
163,72,16,434,258,L,L,812,1,L
163,72,17,178,233,R,L,1008,5,L
163,72,18,419,275,R,U,852,0,U
163,72,19,219,218,R,D,990,4,D
163,72,20,369,265,D,L,789,1,L
163,72,21,214,206,U,R,897,4,R
163,72,22,463,213,U,R,992,6,R
163,72,23,266,175,L,L,672,1,L
163,72,24,455,215,R,R,679,1,R
163,72,25,136,235,R,R,832,2,R
163,72,26,390,287,R,U,823,0,U
163,72,27,141,255,D,D,769,5,U
163,72,28,344,247,D,U,1062,5,U
163,72,29,513,287,L,L,709,3,D
163,72,30,165,240,L,L,879,2,L
163,72,31,447,189,U,R,815,4,R
163,72,32,177,222,L,L,808,0,L
163,72,33,495,189,R,R,735,4,R
163,72,34,308,238,R,R,793,2,R
163,72,35,116,199,D,D,702,3,D
163,72,36,408,206,U,L,800,2,L
163,72,37,254,209,R,U,856,3,U
163,72,38,454,220,R,D,728,1,D
163,72,39,246,235,R,U,719,6,U
163,72,40,524,284,L,R,1104,6,R
163,72,41,338,246,U,U,736,1,U
163,72,42,142,244,U,L,935,5,L
163,72,43,288,191,L,D,648,5,D
163,72,44,442,231,R,U,803,0,U
163,72,45,269,256,L,L,670,2,L
163,72,46,458,246,L,R,839,6,R
163,72,47,142,234,D,D,632,0,D
163,72,48,356,245,R,R,880,5,R
163,72,49,524,266,D,D,689,1,D
163,72,50,354,173,D,U,840,2,U
163,72,51,159,177,D,R,800,5,R
163,72,52,436,216,L,L,617,2,L
163,72,53,129,227,R,L,869,3,L
163,72,54,346,177,D,D,759,4,D
163,72,55,501,280,D,D,738,4,D
163,73,1,302,265,R,U,790,6,U
163,73,2,500,199,L,L,801,4,L
163,73,3,215,253,R,R,679,0,R
163,73,4,418,222,R,R,695,6,R
163,73,5,131,186,L,D,944,1,D
163,73,6,480,288,L,D,935,1,D
163,73,7,150,282,D,D,711,3,D
163,73,8,318,189,L,D,783,3,D
163,73,9,117,284,U,R,712,4,R
163,73,10,505,244,D,R,960,6,R
163,73,11,339,236,R,L,871,1,L
163,73,12,524,286,R,L,816,2,L
163,73,13,365,288,D,D,703,0,D
163,73,14,160,277,D,U,695,6,U
163,73,15,380,220,U,U,751,1,U
163,73,16,522,276,D,U,816,2,U
163,73,17,341,273,L,R,1025,0,R
163,73,18,191,201,R,L,919,5,L
163,73,19,399,181,U,L,728,4,L
163,73,20,148,246,L,L,672,5,L
163,73,21,477,209,L,U,800,0,U
163,73,22,246,194,D,U,752,6,U
163,73,23,404,228,L,L,784,4,L
163,73,24,122,220,D,D,624,1,D
163,73,25,332,173,L,L,720,2,L
163,73,26,498,265,L,L,728,2,L
163,73,27,254,215,U,U,737,3,U
163,73,28,413,267,U,D,743,0,D
163,73,29,180,175,D,L,920,3,L
163,73,30,380,206,D,R,672,3,R
163,73,31,211,249,L,L,678,2,L
163,73,32,423,177,U,U,666,6,U
163,73,33,202,190,D,U,1022,4,U
163,73,34,380,241,D,D,640,1,D
163,73,35,212,269,D,U,847,4,U
163,73,36,501,259,U,U,686,6,U
163,73,37,272,237,U,U,857,6,U
163,73,38,441,212,D,D,833,3,D
163,73,39,290,187,U,L,687,6,L
163,73,40,147,285,R,R,744,1,R
163,73,41,491,276,U,L,695,4,L
163,73,42,116,278,L,L,711,1,D
163,73,43,464,172,U,R,855,4,R
163,73,44,256,215,U,U,743,2,U
163,73,45,466,253,U,D,703,5,D
163,73,46,157,197,U,D,727,0,D
163,73,47,505,207,R,R,664,2,R
163,73,48,347,208,U,U,719,0,U
163,73,49,497,185,U,U,688,6,U
163,73,50,176,231,D,U,935,2,U
163,73,51,336,230,U,U,704,0,U
163,73,52,171,266,R,R,1104,5,R
163,73,53,380,217,R,R,680,2,R
163,73,54,138,197,R,U,1153,5,U
163,73,55,468,181,D,D,622,1,D
163,73,56,242,203,D,D,694,0,D
163,73,57,397,231,L,D,840,0,D
163,74,1,203,172,U,L,1054,0,L
163,74,2,488,269,R,R,693,4,L
163,74,3,147,244,L,L,806,3,L
163,74,4,415,241,U,U,1055,2,U
163,74,5,195,243,L,L,743,6,L
163,74,6,383,192,R,U,847,5,U
163,74,7,203,172,R,R,664,1,R
163,74,8,381,259,U,D,959,3,D
163,74,9,523,212,L,L,752,5,L
163,74,10,269,208,L,L,727,5,L
163,74,11,472,184,L,U,735,4,U
163,74,12,211,214,D,U,1079,4,U
163,74,13,502,215,L,L,687,0,R
163,74,14,217,266,D,R,959,0,R
163,74,15,514,282,L,L,887,0,L
163,74,16,317,206,U,U,840,5,U
163,74,17,464,224,U,D,823,6,D
163,74,18,200,181,L,L,696,2,L
163,74,19,340,175,L,U,1008,5,U
163,74,20,127,175,R,R,768,5,R
163,74,21,373,252,R,L,720,6,L
163,74,22,135,220,U,R,864,5,R
163,74,23,472,202,L,L,696,2,L
163,74,24,246,240,R,R,672,2,R
163,74,25,522,282,D,U,784,0,U
163,74,26,161,258,L,U,807,4,U
163,74,27,425,202,D,D,807,6,D
163,74,28,158,200,D,D,808,3,D
163,74,29,449,289,D,D,655,2,D
163,74,30,138,246,L,D,847,6,D
163,74,31,386,177,U,L,855,4,U
163,74,32,202,191,D,D,960,2,D
163,74,33,433,286,L,L,838,3,L
163,74,34,216,189,U,R,929,3,R
163,74,35,454,270,L,L,671,4,L
163,74,36,282,213,R,R,703,0,R
163,74,37,492,198,U,D,816,4,D
163,74,38,353,179,L,L,726,2,L
163,74,39,117,271,L,L,791,5,L
163,74,40,509,249,L,D,904,5,U
163,74,41,194,271,D,D,1024,6,D
163,74,42,463,215,R,L,800,2,L
163,74,43,191,171,U,U,816,1,U
163,74,44,447,254,L,U,936,5,U
163,74,45,196,192,U,D,735,2,D
163,74,46,455,184,L,L,608,3,L
163,74,47,220,244,U,R,734,1,R
163,74,48,386,186,U,R,680,4,R
163,74,49,228,215,R,R,672,4,R
163,74,50,378,258,L,D,1031,6,D
163,74,51,172,218,U,U,848,5,U
163,74,52,390,228,L,L,808,2,L
163,74,53,144,209,L,L,623,3,L
163,74,54,477,289,R,L,955,4,L
163,74,55,263,212,D,D,704,3,D
163,75,1,286,234,R,U,988,0,U
163,75,2,504,287,R,D,836,2,D
163,75,3,298,279,L,L,832,1,L
163,75,4,437,211,D,L,879,6,L
163,75,5,217,244,R,L,943,5,L
163,75,6,376,266,D,R,1039,3,R
163,75,7,132,260,L,U,872,2,U
163,75,8,366,189,U,U,817,3,U
163,75,9,512,232,D,R,1061,4,R
163,75,10,336,213,U,R,623,4,R
163,75,11,185,236,L,L,743,0,L
163,75,12,488,256,U,L,951,5,L
163,75,13,182,270,R,R,759,6,R
163,75,14,325,255,L,U,824,4,U
163,75,15,143,271,D,D,895,3,D
163,75,16,406,197,D,D,712,1,D
163,75,17,158,180,L,L,672,0,L
163,75,18,468,285,U,U,808,1,U
163,75,19,283,226,D,U,936,5,U
163,75,20,448,242,D,D,672,1,D
163,75,21,215,234,U,U,944,3,U
163,75,22,471,257,D,D,703,6,D
163,75,23,316,203,R,R,712,4,R
163,75,24,189,263,U,U,943,3,U
163,75,25,483,231,D,U,879,2,U
163,75,26,227,249,U,D,784,6,D
163,75,27,382,205,U,D,920,3,D
163,75,28,134,275,R,D,960,3,D
163,75,29,299,233,L,L,952,6,L
163,75,30,517,196,R,U,1025,2,U
163,75,31,190,211,R,L,689,2,L
163,75,32,404,265,U,U,694,2,U
163,75,33,118,197,U,U,975,3,U
163,75,34,323,271,D,D,744,3,D
163,75,35,491,262,R,D,799,2,D
163,75,36,342,203,R,R,656,2,R
163,75,37,162,172,L,U,751,6,U
163,75,38,297,238,L,L,752,0,L
163,75,39,493,207,U,D,864,3,D
163,75,40,123,247,D,D,615,2,D
163,75,41,322,234,D,U,856,1,U
163,75,42,523,214,R,R,872,5,R
163,75,43,230,173,U,U,712,0,U
163,75,44,525,242,R,U,824,0,U
163,75,45,278,206,D,R,928,6,R
163,75,46,519,222,R,U,879,0,U
163,75,47,323,194,L,U,824,4,U
163,75,48,176,284,R,D,872,5,D
163,75,49,470,274,U,R,896,3,R
163,75,50,143,196,D,R,952,2,R
163,75,51,391,211,U,D,824,0,D
163,75,52,183,207,L,L,652,3,L
163,75,53,502,257,U,U,619,2,U
163,75,54,166,281,D,D,687,5,D
163,76,1,276,278,R,U,954,3,U
163,76,2,468,283,D,L,947,6,L
163,76,3,202,205,R,R,798,3,R
163,76,4,371,275,R,D,833,0,D
163,76,5,126,288,D,L,918,1,L
163,76,6,399,184,D,U,863,2,U
163,76,7,168,211,R,R,649,5,R
163,76,8,504,232,D,R,1007,0,R
163,76,9,232,188,R,R,712,5,R
163,76,10,448,231,U,U,751,1,U
163,76,11,131,266,R,R,711,5,R
163,76,12,452,201,R,R,711,4,R
163,76,13,182,214,D,U,656,6,U
163,76,14,433,261,R,L,695,6,L
163,76,15,204,197,U,U,736,6,U
163,76,16,506,247,U,D,793,0,D
163,76,17,267,203,D,L,887,4,L
163,76,18,462,275,U,U,688,6,L
163,76,19,121,174,R,D,927,5,D
163,76,20,400,259,U,R,879,5,R
163,76,21,230,216,L,D,832,4,D
163,76,22,359,271,L,L,704,0,L
163,76,23,176,285,U,U,751,2,U
163,76,24,319,170,D,D,824,4,D
163,76,25,507,288,L,L,663,3,L
163,76,26,241,219,D,D,778,4,D
163,76,27,399,219,R,R,622,6,R
163,76,28,268,280,U,U,719,6,U
163,76,29,448,205,U,R,751,0,R
163,76,30,125,184,D,D,720,6,D
163,76,31,428,195,D,D,823,3,D
163,76,32,274,232,D,U,727,1,U
163,76,33,481,278,D,U,871,4,U
163,76,34,138,288,U,U,743,4,U
163,76,35,483,221,U,U,1047,4,U
163,76,36,326,229,U,U,863,4,U
163,76,37,162,267,D,L,976,1,L
163,76,38,368,215,U,R,623,4,R
163,76,39,215,257,D,L,838,5,L
163,76,40,353,213,L,L,751,5,L
163,76,41,115,259,U,L,832,0,L
163,76,42,406,272,D,U,1007,6,U
163,76,43,274,200,L,L,904,4,L
163,76,44,401,269,U,L,832,2,L
163,76,45,118,269,D,L,816,1,L
163,76,46,378,271,D,U,744,0,U
163,76,47,204,259,U,U,847,5,U
163,76,48,471,263,U,D,1048,0,D
163,76,49,149,190,D,L,663,1,L
163,76,50,458,174,R,R,647,4,R
163,76,51,148,289,U,U,736,6,U
163,76,52,398,198,L,D,856,2,D
163,76,53,169,254,L,L,624,2,L
163,76,54,432,288,U,L,867,2,L
163,76,55,276,227,D,R,663,1,R
163,76,56,430,196,L,L,747,0,L
163,77,1,298,183,U,D,962,6,D
163,77,2,119,285,D,D,709,2,D
163,77,3,360,198,U,U,896,6,U
163,77,4,514,179,L,L,934,6,L
163,77,5,275,232,L,R,752,1,R
163,77,6,496,258,R,U,936,1,U
163,77,7,295,200,U,U,783,6,U
163,77,8,127,214,L,L,744,0,L
163,77,9,330,211,U,U,736,5,U
163,77,10,191,181,R,U,952,0,U
163,77,11,486,238,R,R,712,3,R
163,77,12,297,210,D,D,703,5,D
163,77,13,478,207,R,R,768,2,R
163,77,14,208,185,U,D,769,1,D
163,77,15,350,219,D,D,871,2,D
163,77,16,197,266,R,R,840,5,R
163,77,17,373,273,R,R,720,5,R
163,77,18,181,189,R,L,688,1,L
163,77,19,490,280,L,L,696,0,L
163,77,20,269,194,R,R,768,6,R
163,77,21,119,289,L,U,904,1,U
163,77,22,411,262,U,U,735,3,U
163,77,23,124,270,R,U,704,4,U
163,77,24,410,263,L,R,825,2,R
163,77,25,174,279,R,R,631,1,R
163,77,26,366,230,U,U,726,5,U
163,77,27,525,238,R,D,864,2,D
163,77,28,183,178,R,R,647,4,R
163,77,29,514,179,L,R,1071,1,R
163,77,30,328,268,L,R,896,2,R
163,77,31,178,244,R,L,959,6,L
163,77,32,343,254,R,L,808,4,L
163,77,33,214,175,D,U,783,6,U
163,77,34,510,261,L,D,840,2,D
163,77,35,305,214,L,L,679,1,L
163,77,36,155,237,U,U,648,6,U
163,77,37,335,278,R,U,912,4,U
163,77,38,523,239,U,U,744,1,U
163,77,39,161,219,L,D,832,1,D
163,77,40,454,242,R,R,641,3,R
163,77,41,261,187,R,R,633,3,R
163,77,42,518,269,U,R,950,1,R
163,77,43,144,267,L,U,767,2,U
163,77,44,445,289,U,R,681,4,R
163,77,45,142,290,U,U,725,4,U
163,77,46,430,282,D,D,592,0,D
163,77,47,281,184,L,L,745,3,L
163,77,48,127,187,L,D,727,0,D
163,77,49,520,231,U,U,710,6,U
163,77,50,115,176,U,L,865,6,L
163,77,51,353,205,L,L,654,6,L
163,77,52,494,214,U,L,904,0,L
163,77,53,322,284,L,L,777,0,L
163,77,54,166,253,L,L,719,4,L
163,77,55,469,229,D,U,791,2,U
163,77,56,238,171,L,L,855,1,L
163,77,57,467,235,U,D,745,2,D
163,78,1,146,231,D,L,970,4,L
163,78,2,304,216,U,U,712,2,U
163,78,3,464,194,D,D,730,5,U
163,78,4,255,227,R,D,1181,3,D
163,78,5,460,206,L,L,695,5,L
163,78,6,187,230,R,R,704,4,R
163,78,7,376,231,U,U,671,3,U
163,78,8,132,180,R,R,666,4,R
163,78,9,387,226,D,L,800,5,L
163,78,10,123,223,R,R,636,2,R
163,78,11,288,211,R,R,704,6,R
163,78,12,143,266,L,U,808,0,U
163,78,13,325,178,D,D,622,5,D
163,78,14,169,276,U,U,663,6,U
163,78,15,460,253,U,D,1023,4,D
163,78,16,133,281,D,D,696,5,D
163,78,17,470,172,L,L,680,5,U
163,78,18,195,256,U,U,896,5,U
163,78,19,474,184,U,U,679,6,U
163,78,20,269,257,L,U,736,2,U
163,78,21,461,217,R,U,832,4,U
163,78,22,317,202,D,R,688,4,R
163,78,23,492,226,D,L,703,4,L
163,78,24,336,234,R,D,672,2,D
163,78,25,119,253,U,U,712,6,U
163,78,26,286,206,L,U,944,0,U
163,78,27,451,276,D,U,879,6,U
163,78,28,170,245,U,R,607,4,R
163,78,29,513,189,U,U,648,5,U
163,78,30,269,212,U,L,743,6,L
163,78,31,504,203,U,U,767,3,U
163,78,32,273,251,D,D,672,4,D
163,78,33,500,202,L,U,784,6,U
163,78,34,315,273,L,U,695,6,U
163,78,35,164,180,L,L,720,0,L
163,78,36,484,263,L,R,752,2,R
163,78,37,185,213,R,R,670,2,R
163,78,38,378,176,D,U,967,3,U
163,78,39,164,186,U,L,696,1,L
163,78,40,382,183,D,D,640,0,D
163,78,41,159,257,L,L,640,2,L
163,78,42,349,282,D,L,894,3,L
163,78,43,151,217,D,R,824,0,R
163,78,44,472,262,R,R,662,2,R
163,78,45,120,289,R,D,880,6,D
163,78,46,354,196,U,U,657,2,U
163,78,47,175,197,D,D,726,3,R
163,78,48,316,245,D,D,816,4,D
163,78,49,166,233,R,D,735,6,R
163,78,50,491,282,U,D,824,0,D
163,78,51,316,209,R,R,695,3,R
163,78,52,504,244,R,D,792,5,D
163,78,53,225,262,D,U,775,3,U
163,78,54,373,202,L,L,758,6,R
163,78,55,207,267,U,U,912,4,U
163,78,56,481,223,U,U,912,0,U
163,78,57,122,187,D,U,856,0,U
163,78,58,337,219,L,R,896,3,R
163,79,1,153,233,L,U,855,6,U
163,79,2,399,215,R,L,845,4,L
163,79,3,179,254,U,U,600,2,U
163,79,4,365,239,R,R,687,1,R
163,79,5,199,185,R,R,767,1,R
163,79,6,322,252,R,D,863,3,D
163,79,7,485,189,D,R,864,5,R
163,79,8,120,222,R,R,615,1,R
163,79,9,397,288,U,R,1128,3,R
163,79,10,132,221,R,R,760,6,R
163,79,11,308,228,L,L,695,0,L
163,79,12,461,189,D,D,767,0,D
163,79,13,166,276,R,U,720,2,U
163,79,14,290,206,D,D,695,6,D
163,79,15,132,285,U,U,776,6,U
163,79,16,246,181,D,D,655,3,D
163,79,17,416,243,R,R,688,1,R
163,79,18,173,289,L,L,712,3,L
163,79,19,326,192,D,D,624,5,D
163,79,20,127,187,L,L,912,5,L
163,79,21,485,175,D,R,793,6,R
163,79,22,323,194,U,D,934,1,D
163,79,23,117,272,L,L,775,1,L
163,79,24,456,193,L,U,696,3,U
163,79,25,275,205,R,U,879,4,U
163,79,26,518,279,L,D,816,5,U
163,79,27,200,214,D,D,1055,4,D
163,79,28,421,274,R,D,743,0,D
163,79,29,149,228,U,U,672,2,U
163,79,30,460,171,U,U,783,6,U
163,79,31,182,252,R,D,831,5,D
163,79,32,350,187,U,U,719,5,U
163,79,33,123,250,R,U,768,6,U
163,79,34,519,227,D,D,664,0,D
163,79,35,137,188,D,D,647,6,D
163,79,36,474,172,L,U,896,4,U
163,79,37,182,222,R,R,647,4,R
163,79,38,452,226,R,D,743,6,D
163,79,39,279,252,R,U,879,2,U
163,79,40,523,220,L,L,728,1,L
163,79,41,125,252,L,D,687,4,D
163,79,42,423,233,U,U,648,0,U
163,79,43,207,220,U,U,712,0,U
163,79,44,345,194,U,D,840,3,D
163,79,45,484,259,R,R,640,0,R
163,79,46,312,170,R,L,809,4,L
163,79,47,516,183,L,D,760,6,D
163,79,48,297,193,U,R,767,2,R
163,79,49,445,257,U,L,880,4,L
163,79,50,168,186,R,U,776,1,U
163,79,51,442,178,L,R,760,3,R
163,79,52,297,232,U,L,800,5,L
163,79,53,115,261,L,L,862,4,L
163,79,54,509,213,R,D,792,4,D
163,79,55,358,278,D,D,696,5,D
163,79,56,202,171,U,U,640,3,U
163,79,57,512,284,L,L,647,2,L
163,79,58,229,179,U,U,785,5,U
163,80,1,345,266,R,U,1036,5,U
163,80,2,164,245,D,D,920,2,D
163,80,3,390,181,L,L,935,0,L
163,80,4,132,178,D,L,839,5,L
163,80,5,263,237,L,L,726,1,L
163,80,6,477,179,R,R,722,1,R
163,80,7,271,258,R,D,749,6,D
163,80,8,426,278,D,D,727,1,D
163,80,9,287,244,L,L,689,3,L
163,80,10,462,191,U,D,710,0,D
163,80,11,186,253,U,L,761,4,L
163,80,12,461,183,D,L,888,0,L
163,80,13,165,240,L,L,632,6,L
163,80,14,385,271,L,L,664,2,L
163,80,15,125,170,L,L,719,2,L
163,80,16,350,189,L,L,616,1,D
163,80,17,490,229,L,L,841,3,L
163,80,18,158,244,L,R,894,4,R
163,80,19,358,271,D,D,656,2,D
163,80,20,496,233,U,L,850,3,L
163,80,21,238,264,U,U,831,3,U
163,80,22,471,223,U,U,750,1,U
163,80,23,291,257,L,U,927,3,U
163,80,24,450,256,L,D,706,2,D
163,80,25,302,260,D,L,1233,6,L
163,80,26,503,229,R,R,727,4,R
163,80,27,173,280,L,U,721,6,U
163,80,28,486,245,L,L,670,3,L
163,80,29,270,280,D,U,839,2,U
163,80,30,125,171,L,L,912,4,L
163,80,31,423,248,L,D,642,0,D
163,80,32,116,276,U,L,854,4,L
163,80,33,301,208,U,R,815,5,R
163,80,34,506,266,U,U,751,6,U
163,80,35,287,273,L,D,761,1,D
163,80,36,137,198,U,R,1015,3,R
163,80,37,416,289,D,D,744,3,D
163,80,38,296,188,D,D,720,2,D
163,80,39,136,234,D,D,712,2,D
163,80,40,470,205,D,D,632,0,D
163,80,41,329,221,L,U,935,4,U
163,80,42,141,215,U,D,697,1,D
163,80,43,427,232,L,L,848,4,L
163,80,44,149,245,L,L,846,5,L
163,80,45,440,277,U,R,920,6,R
163,80,46,276,195,L,L,736,6,L
163,80,47,417,268,R,R,735,4,R
163,80,48,258,210,D,D,762,5,R
163,80,49,412,171,U,R,735,2,R
163,80,50,115,187,R,R,709,2,R
163,80,51,294,197,D,D,985,4,D
163,80,52,151,171,U,R,897,1,R
163,80,53,426,200,L,L,735,1,L
163,80,54,283,275,U,U,718,1,U
163,80,55,447,242,D,D,590,5,D
163,80,56,280,270,D,U,873,0,U
163,80,57,487,225,L,L,589,5,L
163,81,1,376,286,R,D,995,0,D
163,81,2,120,218,D,R,1272,6,R
163,81,3,507,237,D,U,999,3,U
163,81,4,328,173,L,R,903,0,R
163,81,5,190,245,D,L,814,2,L
163,81,6,357,268,D,D,678,0,U
163,81,7,502,206,D,U,1007,5,U
163,81,8,168,212,R,R,767,2,R
163,81,9,397,272,L,D,872,6,D
163,81,10,148,204,R,D,857,1,D
163,81,11,382,220,R,R,615,3,R
163,81,12,145,257,R,R,672,4,R
163,81,13,346,235,U,R,872,1,R
163,81,14,483,171,D,D,712,5,D
163,81,15,265,180,R,R,752,0,R
163,81,16,407,250,L,L,1008,5,L
163,81,17,167,227,R,R,688,2,R
163,81,18,387,259,R,R,777,5,R
163,81,19,184,288,R,U,1143,3,U
163,81,20,390,242,R,D,929,3,D
163,81,21,258,178,U,D,862,5,D
163,81,22,456,276,L,D,710,6,D
163,81,23,176,270,L,D,800,1,L
163,81,24,287,182,D,L,159,5,L
163,81,25,460,269,U,U,967,1,U
163,81,26,115,251,L,U,1063,6,U
163,81,27,394,220,R,U,962,0,U
163,81,28,165,270,D,D,638,1,D
163,81,29,455,175,R,R,728,4,R
163,81,30,125,226,D,D,742,1,D
163,81,31,437,277,D,D,695,1,D
163,81,32,121,196,U,R,847,3,R
163,81,33,440,283,D,L,946,4,L
163,81,34,160,276,R,L,703,3,L
163,81,35,486,207,R,D,870,3,D
163,81,36,351,273,U,L,832,2,L
163,81,37,184,200,D,U,831,2,U
163,81,38,336,274,D,D,648,2,D
163,81,39,493,244,U,R,849,0,R
163,81,40,188,224,R,L,686,2,L
163,81,41,430,268,R,L,688,4,L
163,81,42,136,187,U,D,752,5,D
163,81,43,312,281,D,U,824,0,U
163,81,44,166,279,D,D,655,5,D
163,81,45,435,195,R,D,777,0,D
163,81,46,133,172,D,D,734,4,D
163,81,47,311,236,U,D,800,4,D
163,81,48,178,288,L,L,746,6,L
163,81,49,368,277,D,U,901,6,U
163,81,50,136,183,D,D,735,6,D
163,81,51,394,285,D,D,733,3,D
163,81,52,202,221,D,R,703,1,R
163,81,53,470,171,U,L,818,0,L
163,81,54,150,251,D,D,680,2,D
163,81,55,300,286,D,D,649,0,D
163,81,56,520,226,R,R,654,4,R
163,82,1,257,208,R,R,700,3,R
163,82,2,487,243,U,U,1077,4,U
163,82,3,173,179,U,U,703,4,U
163,82,4,513,285,L,L,792,4,L
163,82,5,192,284,U,U,727,0,U
163,82,6,419,278,L,D,1015,6,D
163,82,7,202,174,U,R,928,3,R
163,82,8,370,240,D,L,849,5,L
163,82,9,202,232,R,U,918,2,U
163,82,10,406,266,R,L,774,4,L
163,82,11,511,173,U,R,695,4,R
163,82,12,136,275,U,U,783,4,U
163,82,13,469,201,L,L,681,0,L
163,82,14,221,256,U,U,703,6,U
163,82,15,376,253,L,L,681,1,L
163,82,16,199,274,L,D,823,0,D
163,82,17,413,245,R,R,616,0,R
163,82,18,240,172,R,R,793,0,R
163,82,19,426,190,L,U,742,1,U
163,82,20,196,244,L,L,735,5,L
163,82,21,521,242,R,R,800,6,R
163,82,22,327,205,L,L,815,4,L
163,82,23,148,179,U,D,880,5,D
163,82,24,484,251,U,R,776,3,U
163,82,25,312,283,R,L,887,4,L
163,82,26,504,274,L,R,832,5,R
163,82,27,188,190,D,D,750,5,D
163,82,28,471,199,U,D,751,2,D
163,82,29,121,175,U,U,751,2,U
163,82,30,290,252,D,R,799,2,R
163,82,31,520,182,D,D,695,2,D
163,82,32,326,223,U,R,863,0,R
163,82,33,497,234,D,D,631,1,D
163,82,34,203,235,R,D,680,5,R
163,82,35,452,274,R,R,808,5,R
163,82,36,297,254,U,L,774,2,L
163,82,37,495,265,L,L,656,0,L
163,82,38,334,222,L,R,720,0,R
163,82,39,153,239,U,U,855,0,U
163,82,40,469,276,D,R,784,3,R
163,82,41,193,242,R,R,703,0,R
163,82,42,501,197,L,U,744,0,U
163,82,43,280,235,R,U,864,3,U
163,82,44,135,246,U,D,1200,4,D
163,82,45,467,283,R,U,974,1,U
163,82,46,194,206,D,D,664,0,D
163,82,47,364,289,U,U,672,1,U
163,82,48,488,216,D,D,880,6,D
163,82,49,234,210,R,R,704,6,R
163,82,50,483,220,R,R,703,3,R
163,82,51,315,209,U,R,951,3,R
163,82,52,488,258,D,U,856,2,U
163,82,53,240,257,U,U,736,3,U
163,82,54,376,202,D,R,879,3,R
163,82,55,255,274,R,R,701,4,R
163,82,56,482,290,D,D,651,1,D
163,82,57,223,280,D,D,729,2,D
163,83,1,134,190,D,D,1010,3,D
163,83,2,409,189,U,R,812,2,R
163,83,3,195,187,U,D,816,0,D
163,83,4,386,185,R,L,859,4,L
163,83,5,179,188,U,U,693,6,U
163,83,6,345,171,R,L,799,1,L
163,83,7,220,277,U,U,751,6,U
163,83,8,500,240,R,D,904,4,D
163,83,9,242,247,R,R,591,0,R
163,83,10,479,236,D,D,799,1,D
163,83,11,220,225,L,L,793,0,L
163,83,12,520,231,D,D,694,0,D
163,83,13,207,178,D,R,783,2,R
163,83,14,516,254,L,L,647,1,L
163,83,15,310,223,D,L,800,2,L
163,83,16,452,198,R,D,759,1,D
163,83,17,286,238,R,R,607,6,R
163,83,18,120,265,U,L,887,1,L
163,83,19,365,225,D,D,712,4,D
163,83,20,227,175,R,L,1088,5,L
163,83,21,440,182,U,U,672,6,U
163,83,22,151,266,R,U,1017,2,U
163,83,23,390,220,R,R,672,0,R
163,83,24,161,281,L,L,663,3,L
163,83,25,440,188,L,L,639,3,L
163,83,26,191,216,L,L,712,4,L
163,83,27,432,284,U,L,841,5,L
163,83,28,149,203,D,L,840,2,L
163,83,29,498,280,D,D,679,6,D
163,83,30,255,242,L,L,729,2,L
163,83,31,410,245,U,U,711,0,U
163,83,32,180,288,R,R,841,1,R
163,83,33,389,282,U,U,750,6,U
163,83,34,280,172,L,L,631,4,R
163,83,35,519,181,D,D,761,2,D
163,83,36,157,183,U,U,960,4,U
163,83,37,519,289,D,L,767,6,L
163,83,38,319,272,R,R,656,1,R
163,83,39,448,195,D,D,727,5,D
163,83,40,151,280,U,U,784,5,U
163,83,41,448,177,L,L,920,5,L
163,83,42,244,190,U,U,791,6,U
163,83,43,425,205,D,D,592,5,D
163,83,44,161,192,L,U,767,2,U
163,83,45,320,211,U,D,888,0,L
163,83,46,496,176,L,L,880,2,L
163,83,47,337,172,U,U,767,2,U
163,83,48,202,225,L,R,887,2,R
163,83,49,516,178,R,R,777,5,R
163,83,50,365,208,U,L,702,1,L
163,83,51,160,239,D,R,904,3,R
163,83,52,322,192,L,D,920,0,D
163,83,53,465,250,R,L,743,1,L
163,83,54,169,271,D,D,752,1,D
163,83,55,507,180,U,L,704,1,L
163,83,56,411,289,D,D,712,6,D
163,83,57,210,217,U,U,786,4,U
163,84,1,150,290,D,L,935,6,L
163,84,2,506,230,L,D,973,6,D
163,84,3,124,272,R,R,784,1,R
163,84,4,493,173,D,R,958,3,R
163,84,5,281,254,U,U,703,2,U
163,84,6,130,290,U,U,1273,4,U
163,84,7,410,263,U,L,726,2,L
163,84,8,138,286,U,D,903,5,D
163,84,9,260,186,D,L,920,5,L
163,84,10,498,252,D,L,776,2,L
163,84,11,163,284,L,L,847,4,L
163,84,12,496,200,U,R,816,1,R
163,84,13,148,197,R,R,760,5,R
163,84,14,501,241,R,R,752,4,R
163,84,15,250,188,L,R,703,4,R
163,84,16,460,184,U,U,735,1,U
163,84,17,322,263,R,R,952,1,R
163,84,18,156,240,L,L,704,2,L
163,84,19,489,241,D,D,728,6,D
163,84,20,204,285,R,R,642,4,R
163,84,21,344,212,R,R,790,2,R
163,84,22,127,277,L,L,615,3,L
163,84,23,512,255,R,R,808,0,R
163,84,24,225,255,R,L,720,6,L
163,84,25,517,197,L,L,697,1,L
163,84,26,248,290,U,R,895,5,R
163,84,27,499,203,R,R,720,3,R
163,84,28,157,204,L,U,976,5,U
163,84,29,369,196,R,R,753,0,R
163,84,30,203,245,D,R,935,6,R
163,84,31,504,239,U,R,815,1,R
163,84,32,204,193,R,R,727,2,R
163,84,33,497,174,U,U,743,2,U
163,84,34,216,271,R,U,1183,1,U
163,84,35,378,215,R,R,864,5,R
163,84,36,235,290,D,L,831,1,L
163,84,37,366,232,D,U,1296,3,U
163,84,38,116,283,R,U,1223,5,U
163,84,39,285,243,D,D,744,5,D
163,84,40,442,214,L,L,720,6,L
163,84,41,116,203,D,D,711,1,D
163,84,42,298,278,U,U,784,0,U
163,84,43,146,186,L,D,928,5,D
163,84,44,396,227,U,U,888,5,U
163,84,45,146,246,U,U,624,2,U
163,84,46,417,245,L,R,984,5,R
163,84,47,193,265,U,L,736,2,L
163,84,48,371,235,L,U,823,1,U
163,84,49,225,260,D,D,687,2,D
163,84,50,374,213,R,D,792,4,D
163,84,51,136,198,U,L,872,5,L
163,84,52,423,252,U,U,746,2,U
163,84,53,170,281,D,D,748,4,D
163,84,54,376,246,D,D,689,5,D
163,85,1,514,175,R,D,883,2,D
163,85,2,122,206,U,L,789,5,L
163,85,3,296,245,R,D,857,4,D
163,85,4,448,212,L,L,814,5,L
163,85,5,281,194,U,L,1287,6,L
163,85,6,435,182,D,D,639,3,D
163,85,7,193,172,D,D,680,1,D
163,85,8,409,190,L,L,807,2,L
163,85,9,232,233,L,U,932,4,U
163,85,10,464,253,D,U,832,6,U
163,85,11,231,221,U,L,718,0,L
163,85,12,486,241,L,U,760,6,U
163,85,13,297,286,U,U,864,5,U
163,85,14,479,240,D,U,806,6,U
163,85,15,213,249,U,U,760,4,U
163,85,16,355,225,U,L,920,5,L
163,85,17,122,180,L,R,751,2,R
163,85,18,362,264,U,L,793,2,L
163,85,19,214,199,D,D,807,3,D
163,85,20,411,272,R,R,665,4,R
163,85,21,192,176,L,U,968,4,U
163,85,22,304,262,R,R,749,3,R
163,85,23,470,281,R,R,816,6,R
163,85,24,277,279,D,L,767,2,L
163,85,25,469,288,R,R,696,1,R
163,85,26,290,227,D,D,655,2,D
163,85,27,523,261,L,D,800,1,D
163,85,28,289,278,U,U,720,4,U
163,85,29,144,186,U,U,800,0,U
163,85,30,471,249,R,D,775,4,D
163,85,31,124,289,R,R,679,1,R
163,85,32,384,253,R,R,674,6,R
163,85,33,153,174,D,R,959,1,R
163,85,34,328,192,U,U,727,0,U
163,85,35,180,230,R,D,1368,3,D
163,85,36,368,248,L,L,776,5,L
163,85,37,164,249,R,R,986,3,R
163,85,38,306,283,L,R,1383,0,R
163,85,39,440,210,R,R,781,0,R
163,85,40,129,239,U,U,721,6,U
163,85,41,301,250,L,U,1014,4,U
163,85,42,519,230,U,U,1048,3,U
163,85,43,157,251,R,R,727,2,R
163,85,44,299,182,D,R,1007,3,R
163,85,45,487,230,R,U,1183,4,U
163,85,46,210,277,D,U,784,1,U
163,85,47,432,173,R,R,770,5,R
163,85,48,283,241,L,U,1006,5,U
163,85,49,441,282,D,L,785,5,L
163,85,50,177,267,D,D,630,5,D
163,85,51,495,263,R,R,640,5,R
163,85,52,210,230,R,R,792,2,R
163,85,53,376,211,U,U,576,0,U
163,85,54,517,177,R,L,823,4,L
163,86,1,466,231,D,U,987,0,U
163,86,2,323,198,U,U,635,6,U
163,86,3,158,171,U,U,679,1,U
163,86,4,519,207,D,D,815,3,D
163,86,5,146,206,R,R,776,5,R
163,86,6,306,211,U,U,600,1,U
163,86,7,521,179,R,U,889,0,U
163,86,8,341,210,D,L,680,3,L
163,86,9,214,282,D,D,703,1,D
163,86,10,356,224,L,L,806,5,L
163,86,11,508,202,D,D,684,2,D
163,86,12,360,243,D,D,799,5,D
163,86,13,117,243,R,R,671,3,R
163,86,14,453,203,L,L,1022,6,L
163,86,15,127,275,D,R,929,5,R
163,86,16,378,239,U,U,583,4,U
163,86,17,160,234,L,U,823,2,U
163,86,18,395,214,D,L,687,6,L
163,86,19,195,180,R,R,679,1,R
163,86,20,463,264,L,U,815,1,U
163,86,21,167,181,L,D,784,2,D
163,86,22,284,267,L,U,864,2,U
163,86,23,128,192,L,L,687,4,L
163,86,24,301,253,L,R,792,0,R
163,86,25,525,289,R,L,910,1,L
163,86,26,355,263,R,U,936,5,U
163,86,27,212,189,R,R,663,1,R
163,86,28,474,216,U,R,760,3,R
163,86,29,168,195,L,L,712,1,L
163,86,30,504,170,L,U,849,2,U
163,86,31,137,255,L,R,863,2,R
163,86,32,394,262,L,U,927,3,U
163,86,33,191,262,L,L,696,0,L
163,86,34,505,187,D,L,760,2,L
163,86,35,200,290,U,D,698,5,D
163,86,36,486,190,L,R,870,5,R
163,86,37,292,191,R,R,711,2,R
163,86,38,498,247,L,R,1026,5,R
163,86,39,189,188,L,L,758,3,L
163,86,40,394,184,D,R,823,2,R
163,86,41,186,248,R,D,935,1,D
163,86,42,328,206,L,L,680,2,L
163,86,43,518,268,D,D,968,4,D
163,86,44,357,217,D,L,871,4,L
163,86,45,498,192,U,R,953,5,R
163,86,46,254,220,D,L,935,0,L
163,86,47,467,251,U,U,663,4,U
163,86,48,186,255,D,U,919,2,U
163,86,49,415,244,L,L,632,0,L
163,86,50,178,266,U,U,672,6,U
163,86,51,505,288,U,U,808,5,U
163,86,52,318,274,U,D,720,2,D
163,86,53,133,206,R,R,632,5,R
163,86,54,366,182,R,R,664,2,R
163,86,55,514,183,R,U,1032,2,U
163,86,56,404,272,R,R,811,5,R
163,87,1,273,177,R,L,1084,5,L
163,87,2,491,190,D,D,867,6,D
163,87,3,165,251,D,L,744,6,L
163,87,4,450,171,D,D,736,2,D
163,87,5,238,243,L,D,697,0,D
163,87,6,388,280,L,D,927,5,D
163,87,7,203,173,U,D,760,5,L
163,87,8,395,174,U,D,718,0,D
163,87,9,209,275,R,R,727,6,R
163,87,10,473,283,U,U,842,2,U
163,87,11,208,285,R,R,615,3,R
163,87,12,441,268,U,L,678,2,L
163,87,13,174,182,D,R,768,2,R
163,87,14,299,255,U,R,887,2,R
163,87,15,130,238,U,U,752,2,U
163,87,16,310,219,L,D,936,6,D
163,87,17,133,274,D,D,640,0,D
163,87,18,494,213,L,L,776,1,L
163,87,19,296,278,L,D,760,1,D
163,87,20,492,253,U,U,808,1,U
163,87,21,254,277,D,D,583,5,D
163,87,22,400,191,R,D,904,4,D
163,87,23,146,233,L,L,640,1,L
163,87,24,400,241,U,L,851,2,L
163,87,25,247,223,D,U,800,1,U
163,87,26,512,275,R,R,658,0,R
163,87,27,369,222,U,D,710,1,D
163,87,28,189,193,D,D,617,6,D
163,87,29,491,215,R,L,768,1,L
163,87,30,316,284,U,U,832,3,U
163,87,31,512,205,D,U,894,0,U
163,87,32,291,268,D,R,713,0,R
163,87,33,435,201,R,D,718,0,D
163,87,34,177,179,D,R,727,4,R
163,87,35,519,190,R,L,695,6,L
163,87,36,290,182,D,D,625,6,D
163,87,37,151,242,D,D,727,3,D
163,87,38,477,228,L,L,711,5,L
163,87,39,229,279,L,L,610,2,L
163,87,40,382,182,L,L,637,4,L
163,87,41,207,187,D,U,848,4,U
163,87,42,389,183,L,L,670,2,L
163,87,43,151,265,U,L,897,1,U
163,87,44,516,281,D,D,934,3,U
163,87,45,353,181,D,D,944,3,D
163,87,46,233,276,L,U,855,6,U
163,87,47,399,196,D,D,551,1,D
163,87,48,240,206,R,D,744,1,D
163,87,49,438,270,D,U,952,2,U
163,87,50,243,265,U,U,920,4,U
163,87,51,463,283,R,R,679,3,R
163,87,52,306,205,R,D,753,0,D
163,87,53,438,257,L,L,702,5,L
163,87,54,180,269,L,R,1039,4,R
163,87,55,501,210,U,L,920,3,L
163,87,56,350,278,D,D,627,2,D
163,87,57,507,228,R,U,837,1,U
163,87,58,348,244,U,L,660,3,L
163,88,1,246,237,L,L,679,6,L
163,88,2,428,253,R,R,588,4,R
163,88,3,239,282,R,R,653,1,R
163,88,4,426,263,R,R,584,1,R
163,88,5,128,189,U,R,1111,6,R
163,88,6,329,232,R,L,712,2,L
163,88,7,129,248,U,D,719,0,D
163,88,8,460,267,U,R,871,3,R
163,88,9,305,257,U,U,976,5,U
163,88,10,471,286,L,L,698,1,L
163,88,11,231,177,D,D,750,0,D
163,88,12,506,261,L,D,783,5,L
163,88,13,267,249,U,U,893,0,U
163,88,14,466,284,R,R,631,4,R
163,88,15,259,265,D,R,799,0,R
163,88,16,496,246,U,U,824,5,U
163,88,17,300,233,L,R,776,0,R
163,88,18,485,225,D,L,792,0,L
163,88,19,336,183,U,U,903,0,U
163,88,20,195,179,R,D,871,3,D
163,88,21,449,252,U,D,799,5,D
163,88,22,293,225,U,U,784,0,U
163,88,23,503,191,R,R,648,4,R
163,88,24,244,196,R,D,776,4,D
163,88,25,524,271,D,L,703,3,L
163,88,26,125,269,U,U,712,6,U
163,88,27,492,180,R,R,648,1,R
163,88,28,255,240,R,R,623,1,R
163,88,29,117,215,U,U,760,3,U
163,88,30,277,207,D,D,712,1,D
163,88,31,514,214,D,D,1023,2,D
163,88,32,217,288,L,L,632,3,L
163,88,33,335,172,U,R,864,1,R
163,88,34,147,190,U,L,634,1,L
163,88,35,359,274,D,D,630,5,D
163,88,36,191,226,U,R,872,3,R
163,88,37,516,228,U,D,647,5,D
163,88,38,357,289,R,U,1063,1,U
163,88,39,191,269,U,L,754,2,L
163,88,40,374,226,D,D,558,1,D
163,88,41,166,281,D,R,767,6,R
163,88,42,400,217,R,D,712,0,D
163,88,43,160,288,U,U,736,3,U
163,88,44,470,290,L,U,791,2,U
163,88,45,151,178,D,D,648,1,D
163,88,46,300,221,U,L,895,0,L
163,88,47,481,237,D,L,799,6,L
163,88,48,206,203,R,R,655,5,R
163,88,49,519,184,U,D,799,1,D
163,88,50,258,197,L,L,639,1,L
163,88,51,495,261,D,D,712,4,D
163,88,52,213,246,U,U,696,6,U
163,88,53,477,244,R,R,623,3,R
163,88,54,200,255,U,U,849,5,U
163,88,55,395,282,R,R,669,0,R
163,88,56,228,195,U,D,925,3,D
163,88,57,446,177,U,L,714,4,L
163,88,58,290,219,U,R,768,3,R
163,88,59,445,280,L,L,683,2,L
163,89,1,423,204,D,R,1019,3,R
163,89,2,174,231,D,D,767,6,D
163,89,3,485,256,L,D,832,6,D
163,89,4,185,263,D,D,600,1,D
163,89,5,506,184,D,D,735,4,D
163,89,6,287,213,D,U,816,1,U
163,89,7,457,173,R,D,920,6,D
163,89,8,324,233,D,D,609,5,D
163,89,9,525,278,U,U,695,6,U
163,89,10,318,259,U,U,872,5,U
163,89,11,184,186,U,U,822,4,U
163,89,12,489,288,L,U,823,3,U
163,89,13,257,224,D,R,655,4,R
163,89,14,408,282,R,L,877,0,L
163,89,15,190,281,D,R,815,6,R
163,89,16,396,281,L,U,856,5,U
163,89,17,127,208,U,U,687,5,U
163,89,18,427,265,U,L,679,6,L
163,89,19,295,178,L,U,776,1,U
163,89,20,130,213,U,L,798,0,L
163,89,21,464,289,R,U,743,6,U
163,89,22,226,173,D,R,704,5,R
163,89,23,371,234,D,D,625,2,D
163,89,24,522,172,R,L,1302,4,L
163,89,25,243,196,R,D,726,2,D
163,89,26,480,204,L,L,680,4,L
163,89,27,140,202,U,L,816,1,L
163,89,28,489,268,U,R,654,0,R
163,89,29,250,207,U,R,744,4,R
163,89,30,482,255,D,D,576,2,D
163,89,31,226,195,D,U,600,6,U
163,89,32,372,202,D,D,679,6,D
163,89,33,229,213,D,D,840,5,D
163,89,34,441,211,R,R,631,6,R
163,89,35,197,245,U,U,768,4,U
163,89,36,466,221,D,R,681,4,R
163,89,37,312,278,D,U,959,0,U
163,89,38,132,239,U,U,687,6,U
163,89,39,306,252,U,U,722,4,U
163,89,40,444,191,R,R,1119,3,R
163,89,41,262,183,U,R,798,0,R
163,89,42,508,199,U,U,951,5,U
163,89,43,222,212,R,R,873,3,R
163,89,44,480,277,D,L,783,1,L
163,89,45,314,278,D,L,766,5,L
163,89,46,212,176,L,L,865,5,L
163,89,47,520,255,L,L,632,2,L
163,89,48,241,238,D,L,704,6,L
163,89,49,431,240,D,D,991,4,D
163,89,50,166,180,L,R,840,2,R
163,89,51,370,223,U,L,928,6,L
163,89,52,119,219,U,L,815,6,L
163,89,53,276,191,U,R,753,6,R
163,89,54,507,244,R,R,855,3,R
163,89,55,304,240,D,L,664,6,L
163,89,56,493,191,R,D,673,5,D
163,89,57,190,180,U,U,726,5,U
163,90,1,177,285,U,U,872,2,U
163,90,2,416,233,R,D,775,2,D
163,90,3,196,253,R,L,953,4,L
163,90,4,332,287,R,D,749,3,D
163,90,5,165,178,L,L,720,3,L
163,90,6,318,251,R,R,671,0,R
163,90,7,483,227,R,R,640,2,R
163,90,8,272,184,L,L,649,2,L
163,90,9,424,214,R,D,648,5,D
163,90,10,280,171,D,D,702,3,D
163,90,11,380,286,L,L,903,4,L
163,90,12,491,183,L,L,671,0,L
163,90,13,235,262,U,U,689,0,U
163,90,14,484,233,R,R,638,4,R
163,90,15,263,254,U,R,761,5,R
163,90,16,518,274,L,U,775,6,U
163,90,17,200,277,R,U,752,4,U
163,90,18,324,212,D,R,768,1,R
163,90,19,163,279,R,D,744,0,D
163,90,20,440,251,D,D,584,0,D
163,90,21,264,180,R,U,800,6,U
163,90,22,479,178,D,R,849,0,R
163,90,23,283,259,D,D,655,5,D
163,90,24,118,279,D,R,880,6,R
163,90,25,322,219,R,U,888,6,L
163,90,26,167,290,L,D,905,2,D
163,90,27,376,259,R,R,640,2,R
163,90,28,224,228,L,R,792,3,R
163,90,29,391,232,U,R,778,2,R
163,90,30,256,191,R,R,732,5,R
163,90,31,118,286,D,R,807,2,R
163,90,32,359,225,U,U,768,0,U
163,90,33,523,290,L,U,816,6,U
163,90,34,424,174,L,L,687,1,L
163,90,35,189,186,D,D,839,5,D
163,90,36,431,231,L,U,720,4,U
163,90,37,260,260,R,R,799,5,R
163,90,38,442,218,R,D,792,4,D
163,90,39,178,226,U,U,693,0,U
163,90,40,309,283,D,D,615,6,D
163,90,41,400,174,L,L,672,6,L
163,90,42,137,242,R,U,1016,3,U
163,90,43,361,220,L,L,600,3,L
163,90,44,147,288,D,D,706,5,U
163,90,45,431,230,R,U,884,4,U
163,90,46,246,207,D,D,648,5,D
163,90,47,452,214,L,L,640,4,L
163,90,48,199,276,L,L,679,0,L
163,90,49,342,170,L,L,646,1,L
163,90,50,514,263,L,L,592,2,L
163,90,51,124,261,L,L,736,6,L
163,90,52,520,213,D,L,638,6,D
163,90,53,223,221,D,R,944,5,R
163,90,54,430,272,R,R,688,5,R
163,90,55,201,211,L,L,761,5,L
163,90,56,385,242,L,R,869,5,R
163,90,57,237,241,U,R,799,2,R
163,90,58,376,170,R,D,855,6,D
163,90,59,196,267,L,D,632,0,D
163,90,60,315,173,U,D,752,6,D
163,91,1,273,220,U,R,614,5,R
163,91,2,424,261,L,D,1139,4,D
163,91,3,158,281,D,D,623,0,D
163,91,4,506,173,L,L,761,5,L
163,91,5,210,266,D,L,760,3,L
163,91,6,416,217,R,R,718,3,R
163,91,7,118,260,L,D,704,3,R
163,91,8,422,217,U,D,790,5,D
163,91,9,174,225,U,R,824,3,R
163,91,10,380,252,D,R,808,6,R
163,91,11,218,194,L,R,720,5,R
163,91,12,420,247,R,D,838,5,D
163,91,13,224,279,U,U,711,6,U
163,91,14,524,205,D,L,783,6,L
163,91,15,338,195,R,R,687,2,R
163,91,16,202,232,U,U,823,6,U
163,91,17,501,183,U,L,807,4,L
163,91,18,210,191,D,R,751,3,R
163,91,19,367,263,D,R,992,2,R
163,91,20,217,258,R,L,647,2,L
163,91,21,430,260,L,L,728,4,L
163,91,22,150,277,D,D,607,5,D
163,91,23,413,234,L,L,704,2,L
163,91,24,226,185,U,U,816,4,U
163,91,25,439,280,U,L,648,3,L
163,91,26,203,258,R,U,904,1,U
163,91,27,507,209,L,L,593,1,L
163,91,28,158,173,D,U,918,6,U
163,91,29,411,222,D,D,600,5,D
163,91,30,176,197,U,R,712,1,R
163,91,31,498,194,L,L,672,6,L
163,91,32,322,173,U,L,656,3,L
163,91,33,141,288,U,U,680,4,U
163,91,34,474,265,D,R,713,2,R
163,91,35,231,254,L,D,727,5,D
163,91,36,491,242,D,D,648,3,D
163,91,37,185,273,U,U,791,0,U
163,91,38,448,280,R,L,1007,5,L
163,91,39,273,174,U,U,800,2,U
163,91,40,442,196,D,R,775,2,R
163,91,41,264,284,D,U,680,6,U
163,91,42,418,204,R,D,712,0,D
163,91,43,200,200,D,D,736,4,D
163,91,44,459,259,L,U,743,0,U
163,91,45,128,271,D,L,711,1,L
163,91,46,258,183,L,U,1047,3,U
163,91,47,482,203,R,D,823,5,U
163,91,48,302,246,D,L,919,5,L
163,91,49,514,188,R,U,1063,0,U
163,91,50,140,227,R,L,831,2,L
163,91,51,417,255,D,D,663,1,D
163,91,52,124,219,R,R,680,0,R
163,91,53,450,255,L,L,622,2,L
163,91,54,237,205,U,U,624,2,U
163,91,55,431,205,R,R,616,1,R
163,91,56,294,172,D,D,664,1,D
163,91,57,497,274,R,D,832,3,D
163,91,58,236,224,U,U,600,0,U
163,91,59,423,262,L,U,747,6,U
163,92,1,283,190,D,R,834,0,R
163,92,2,487,207,L,U,908,6,U
163,92,3,307,203,D,U,751,5,U
163,92,4,498,288,D,D,720,4,D
163,92,5,206,194,U,U,679,3,U
163,92,6,370,259,D,R,824,6,R
163,92,7,135,200,D,U,715,1,U
163,92,8,429,220,U,U,709,4,U
163,92,9,258,270,D,L,816,6,L
163,92,10,519,271,R,D,855,3,D
163,92,11,224,257,R,D,650,0,D
163,92,12,512,199,R,D,838,4,D
163,92,13,172,262,R,R,905,5,R
163,92,14,387,197,D,U,830,4,U
163,92,15,145,218,L,D,823,0,D
163,92,16,367,220,L,L,584,1,L
163,92,17,115,267,L,U,727,4,U
163,92,18,355,263,R,R,712,0,R
163,92,19,507,237,R,U,850,2,U
163,92,20,361,237,D,D,711,5,D
163,92,21,504,182,D,L,735,3,L
163,92,22,167,252,R,L,672,2,L
163,92,23,370,270,D,D,640,6,D
163,92,24,115,198,U,U,770,1,U
163,92,25,507,213,U,D,743,5,D
163,92,26,276,269,U,L,879,3,L
163,92,27,455,236,R,R,608,5,R
163,92,28,148,220,U,U,752,3,U
163,92,29,498,256,U,D,871,4,D
163,92,30,285,222,R,R,672,5,R
163,92,31,435,287,U,R,881,5,R
163,92,32,164,250,L,D,1095,1,U
163,92,33,431,215,L,D,951,4,D
163,92,34,254,178,D,U,791,0,U
163,92,35,462,208,L,U,792,4,U
163,92,36,227,173,R,R,688,4,R
163,92,37,481,232,D,D,614,2,D
163,92,38,222,225,R,L,672,3,L
163,92,39,424,263,R,R,690,1,R
163,92,40,235,251,L,R,829,1,R
163,92,41,487,188,L,D,839,6,D
163,92,42,120,217,R,R,825,0,R
163,92,43,516,191,D,L,918,0,L
163,92,44,312,237,R,R,753,0,R
163,92,45,506,246,D,U,894,2,U
163,92,46,156,228,U,U,673,1,U
163,92,47,319,260,D,D,679,5,D
163,92,48,472,200,U,U,1217,5,U
163,92,49,227,171,D,U,839,2,U
163,92,50,463,279,U,U,687,2,U
163,92,51,190,287,D,U,977,1,U
163,92,52,417,246,L,L,719,4,L
163,92,53,247,186,U,R,823,1,R
163,92,54,487,247,L,D,857,1,D
163,92,55,209,275,L,L,705,0,L
163,92,56,396,213,U,D,838,5,D
163,92,57,202,230,D,R,705,1,R
163,93,1,467,191,D,D,825,0,D
163,93,2,251,181,U,R,715,1,R
163,93,3,389,230,L,L,903,1,L
163,93,4,241,245,D,D,736,3,D
163,93,5,467,209,U,R,895,0,R
163,93,6,167,255,R,R,687,5,R
163,93,7,396,253,D,D,674,5,D
163,93,8,170,285,D,L,806,0,L
163,93,9,281,176,D,D,712,2,D
163,93,10,470,190,R,R,641,5,R
163,93,11,162,189,D,D,717,3,D
163,93,12,486,213,R,R,849,6,R
163,93,13,143,246,R,D,760,6,D
163,93,14,317,204,L,L,720,6,L
163,93,15,156,217,R,D,816,6,D
163,93,16,453,223,R,R,583,4,R
163,93,17,235,199,U,U,712,4,U
163,93,18,430,230,U,D,656,2,D
163,93,19,175,197,D,D,825,6,D
163,93,20,431,234,U,U,741,5,U
163,93,21,221,202,R,D,608,2,D
163,93,22,481,265,L,U,791,6,U
163,93,23,269,170,D,D,583,5,D
163,93,24,401,218,R,R,647,6,R
163,93,25,261,280,L,L,751,4,L
163,93,26,159,182,R,D,968,6,D
163,93,27,349,178,D,L,935,2,L
163,93,28,209,211,D,D,694,3,D
163,93,29,494,266,R,R,642,4,R
163,93,30,165,205,R,R,710,1,R
163,93,31,374,288,U,U,713,1,U
163,93,32,209,222,D,L,638,4,L
163,93,33,360,253,R,U,839,2,U
163,93,34,517,218,U,R,912,3,R
163,93,35,179,204,U,R,1129,5,R
163,93,36,489,210,D,D,686,6,D
163,93,37,292,281,L,U,839,4,U
163,93,38,479,259,U,U,792,5,U
163,93,39,206,265,U,L,655,4,L
163,93,40,452,217,R,U,768,0,U
163,93,41,235,187,D,R,745,0,R
163,93,42,397,264,L,L,638,3,L
163,93,43,141,273,D,D,672,6,D
163,93,44,288,171,L,D,1048,6,D
163,93,45,426,284,R,R,607,1,R
163,93,46,238,205,D,U,1008,5,U
163,93,47,414,178,D,D,632,6,D
163,93,48,261,190,U,U,760,2,U
163,93,49,425,226,D,D,599,6,D
163,93,50,133,237,U,U,816,4,U
163,93,51,484,263,U,D,865,6,U
163,93,52,237,219,U,U,281,6,L
163,93,53,409,286,U,U,1020,1,U
163,93,54,163,201,R,R,736,3,R
163,93,55,489,205,L,L,664,0,L
163,93,56,241,171,U,U,648,2,U
163,93,57,399,215,D,R,790,6,R
163,93,58,161,188,D,D,654,4,D
163,93,59,395,252,R,R,609,4,R
163,93,60,235,261,L,D,813,5,D
163,94,1,416,176,D,R,814,6,R
163,94,2,256,260,L,L,757,2,L
163,94,3,385,175,U,L,917,5,L
163,94,4,254,250,L,L,631,2,L
163,94,5,396,224,U,R,945,3,R
163,94,6,193,236,U,R,606,2,R
163,94,7,349,277,L,D,793,6,D
163,94,8,119,212,D,L,752,2,L
163,94,9,519,250,L,D,848,0,D
163,94,10,205,194,L,L,833,5,L
163,94,11,464,241,D,D,590,1,D
163,94,12,142,281,U,L,719,0,L
163,94,13,499,248,L,L,1026,0,L
163,94,14,116,277,U,L,942,4,L
163,94,15,516,264,U,U,864,3,U
163,94,16,338,185,U,U,777,3,U
163,94,17,493,190,U,D,831,1,D
163,94,18,359,279,L,U,896,1,U
163,94,19,178,281,R,D,800,6,D
163,94,20,519,238,L,L,624,0,L
163,94,21,286,286,U,L,855,6,L
163,94,22,435,238,U,U,655,0,U
163,94,23,261,287,R,L,896,5,L
163,94,24,454,252,U,U,839,5,U
163,94,25,320,190,D,D,752,0,D
163,94,26,166,236,L,D,703,4,D
163,94,27,495,201,D,D,673,1,D
163,94,28,321,257,R,R,768,3,R
163,94,29,136,284,U,L,808,6,L
163,94,30,419,179,D,L,736,5,L
163,94,31,119,198,L,L,642,6,L
163,94,32,435,189,U,U,750,2,U
163,94,33,146,234,U,R,848,2,R
163,94,34,353,224,U,D,705,5,D
163,94,35,159,260,L,R,983,5,R
163,94,36,460,273,R,L,744,5,L
163,94,37,224,205,R,R,767,2,R
163,94,38,523,239,D,U,823,0,U
163,94,39,306,259,R,L,704,2,L
163,94,40,149,258,D,R,1000,6,R
163,94,41,373,186,L,L,767,3,D
163,94,42,178,281,U,L,928,3,L
163,94,43,397,236,L,U,782,1,U
163,94,44,213,219,U,R,873,5,R
163,94,45,358,216,R,D,761,5,U
163,94,46,149,196,L,U,1013,6,U
163,94,47,375,180,D,D,863,4,D
163,94,48,184,260,D,U,640,6,U
163,94,49,460,233,L,D,943,6,D
163,94,50,128,249,D,R,815,0,R
163,94,51,464,278,R,R,664,2,R
163,94,52,169,250,L,L,659,4,L
163,94,53,482,256,U,U,726,2,U
163,94,54,291,190,D,R,736,2,R
163,94,55,124,245,R,D,907,3,D
163,94,56,284,230,L,D,1035,4,D
163,95,1,500,178,U,L,1845,5,L
163,95,2,304,279,R,R,845,2,R
163,95,3,137,195,R,U,905,2,U
163,95,4,496,241,U,U,878,5,U
163,95,5,271,244,L,L,647,5,R
163,95,6,522,213,D,D,839,0,D
163,95,7,243,215,D,L,759,6,L
163,95,8,489,234,U,U,746,3,U
163,95,9,227,271,R,R,653,6,R
163,95,10,489,225,U,U,712,5,U
163,95,11,322,201,U,U,767,1,U
163,95,12,116,229,L,L,679,3,L
163,95,13,281,236,L,L,607,1,L
163,95,14,464,227,D,L,767,3,L
163,95,15,305,288,D,D,744,4,D
163,95,16,116,264,U,D,792,2,D
163,95,17,366,259,U,U,671,0,U
163,95,18,195,239,U,R,729,1,R
163,95,19,337,260,D,D,605,2,D
163,95,20,482,206,R,R,655,5,R
163,95,21,137,269,R,R,687,3,R
163,95,22,272,190,L,L,664,0,L
163,95,23,450,242,D,D,575,0,U
163,95,24,122,266,U,U,911,3,U
163,95,25,468,240,R,R,688,4,R
163,95,26,324,262,L,L,703,5,L
163,95,27,525,248,R,L,753,1,L
163,95,28,367,259,U,R,789,3,R
163,95,29,180,191,D,D,736,0,D
163,95,30,333,183,D,R,960,6,R
163,95,31,139,262,U,U,750,5,U
163,95,32,312,243,L,L,697,1,L
163,95,33,461,275,D,D,662,2,D
163,95,34,294,286,U,D,753,3,U
163,95,35,158,194,R,L,783,2,L
163,95,36,502,177,R,U,814,0,U
163,95,37,310,278,D,R,800,5,R
163,95,38,508,205,U,L,656,3,L
163,95,39,281,219,U,R,736,4,R
163,95,40,517,260,R,R,680,5,R
163,95,41,300,273,D,U,848,2,U
163,95,42,194,178,U,L,838,1,L
163,95,43,307,276,U,U,761,5,U
163,95,44,509,259,L,L,638,2,L
163,95,45,238,252,R,D,783,6,D
163,95,46,413,264,U,L,658,1,L
163,95,47,171,192,R,D,820,0,D
163,95,48,511,221,D,L,648,1,L
163,95,49,240,209,D,R,767,1,D
163,95,50,451,253,L,D,567,5,L
163,95,51,215,231,R,R,870,3,R
163,95,52,440,263,D,D,823,4,D
163,95,53,220,188,D,D,721,5,D
163,95,54,455,214,R,L,758,3,L
163,95,55,287,194,L,U,872,1,U
163,95,56,488,266,R,U,832,1,U
163,95,57,176,212,R,D,695,2,D
163,95,58,358,228,R,L,723,1,U
163,96,1,399,283,U,R,728,2,R
163,96,2,158,220,R,R,749,6,R
163,96,3,329,267,U,U,855,4,U
163,96,4,141,240,D,D,735,6,D
163,96,5,493,191,R,R,664,1,R
163,96,6,184,248,D,D,781,3,D
163,96,7,333,228,D,D,767,4,D
163,96,8,173,258,R,L,776,6,L
163,96,9,409,203,U,R,768,5,R
163,96,10,292,282,D,L,632,3,L
163,96,11,491,287,D,R,840,1,R
163,96,12,161,218,U,U,656,1,U
163,96,13,473,232,L,D,720,2,U
163,96,14,231,249,L,R,839,2,R
163,96,15,418,246,R,R,760,6,R
163,96,16,211,269,L,D,728,1,D
163,96,17,508,248,D,L,632,3,L
163,96,18,142,193,U,L,824,0,L
163,96,19,479,264,L,R,728,3,R
163,96,20,235,215,L,L,904,5,L
163,96,21,470,279,L,L,720,0,L
163,96,22,205,285,D,U,880,4,U
163,96,23,392,221,R,R,751,5,R
163,96,24,180,270,R,R,872,6,R
163,96,25,472,238,L,L,663,3,L
163,96,26,168,194,L,L,688,0,L
163,96,27,482,191,U,U,694,1,U
163,96,28,305,175,L,L,712,3,L
163,96,29,143,199,U,D,799,6,D
163,96,30,308,177,U,U,711,6,U
163,96,31,143,262,D,R,872,5,R
163,96,32,485,191,D,R,776,5,R
163,96,33,162,244,U,L,814,5,L
163,96,34,391,271,U,R,711,1,R
163,96,35,219,243,D,L,879,3,L
163,96,36,372,238,L,D,727,1,D
163,96,37,176,198,D,D,648,6,D
163,96,38,399,186,U,U,744,2,U
163,96,39,202,290,D,L,718,3,L
163,96,40,460,212,L,R,687,0,R
163,96,41,182,196,R,R,1023,3,R
163,96,42,523,275,U,D,1007,4,D
163,96,43,386,210,U,U,704,6,U
163,96,44,136,233,R,L,816,1,L
163,96,45,514,278,L,L,600,1,L
163,96,46,233,268,D,D,618,2,D
163,96,47,524,195,L,L,687,5,L
163,96,48,308,223,U,U,759,6,U
163,96,49,502,231,D,R,736,1,R
163,96,50,282,193,R,L,856,4,L
163,96,51,121,225,R,R,704,5,U
163,96,52,516,173,U,D,688,5,D
163,96,53,335,178,L,L,735,2,L
163,96,54,459,251,R,R,896,0,R
163,96,55,168,199,R,L,823,0,L
163,96,56,397,199,U,U,639,6,U
163,96,57,169,215,U,R,698,6,R
163,96,58,495,256,U,U,740,0,U
163,96,59,203,186,U,U,912,0,U
163,97,1,344,219,L,U,811,5,U
163,97,2,206,244,U,U,789,4,U
163,97,3,497,198,U,U,695,2,U
163,97,4,275,281,L,R,888,6,R
163,97,5,407,218,R,L,879,6,L
163,97,6,174,266,U,U,799,1,U
163,97,7,484,227,D,L,672,1,L
163,97,8,316,170,L,L,654,1,L
163,97,9,147,254,D,R,951,1,R
163,97,10,420,191,U,U,607,0,U
163,97,11,251,205,L,D,775,2,D
163,97,12,440,214,U,U,651,0,U
163,97,13,275,186,D,D,660,6,D
163,97,14,424,189,R,R,624,2,R
163,97,15,117,197,L,R,736,2,R
163,97,16,488,265,L,D,942,3,D
163,97,17,186,261,L,D,847,1,D
163,97,18,482,179,L,L,632,2,L
163,97,19,308,221,U,L,687,1,L
163,97,20,521,270,R,R,679,2,R
163,97,21,300,212,U,U,664,1,U
163,97,22,494,192,L,D,848,3,D
163,97,23,228,271,R,R,624,4,R
163,97,24,381,260,U,U,711,1,U
163,97,25,147,196,D,U,910,0,U
163,97,26,411,201,U,L,904,0,L
163,97,27,199,172,R,R,616,2,R
163,97,28,515,211,U,U,706,5,U
163,97,29,151,211,L,U,822,2,U
163,97,30,485,170,L,R,951,3,R
163,97,31,187,219,D,D,823,4,D
163,97,32,381,230,L,D,808,3,D
163,97,33,241,177,D,U,872,5,U
163,97,34,496,270,D,R,943,5,R
163,97,35,302,254,R,R,728,5,R
163,97,36,451,234,U,U,655,1,U
163,97,37,150,208,L,L,887,5,L
163,97,38,319,256,U,U,903,1,U
163,97,39,184,215,R,R,823,4,R
163,97,40,414,181,L,D,880,6,D
163,97,41,124,217,U,L,753,0,L
163,97,42,291,206,D,U,1017,6,U
163,97,43,431,202,R,L,768,3,L
163,97,44,165,243,R,U,847,2,U
163,97,45,380,189,L,R,839,1,R
163,97,46,512,250,L,L,672,3,L
163,97,47,119,241,R,R,727,2,R
163,97,48,292,202,L,L,655,3,L
163,97,49,521,290,L,L,743,2,L
163,97,50,138,207,D,D,783,6,D
163,97,51,425,261,L,R,783,0,R
163,97,52,212,268,U,U,648,2,U
163,97,53,417,242,D,D,662,3,D
163,97,54,270,188,U,U,792,3,U
163,97,55,472,239,U,L,720,2,L
163,97,56,303,212,D,D,664,5,D
163,97,57,463,268,L,L,720,5,L
163,97,58,305,210,D,U,657,2,U
163,98,1,410,252,R,R,654,5,R
163,98,2,153,289,D,D,822,4,D
163,98,3,374,172,L,L,767,5,L
163,98,4,167,227,U,U,790,5,U
163,98,5,356,247,D,D,696,3,D
163,98,6,510,171,L,U,967,4,U
163,98,7,208,261,D,D,632,5,D
163,98,8,372,201,L,R,759,4,R
163,98,9,183,275,D,D,672,1,D
163,98,10,368,198,D,R,631,4,R
163,98,11,128,234,R,U,774,1,U
163,98,12,504,200,L,L,719,1,L
163,98,13,301,261,U,U,672,1,U
163,98,14,448,201,D,D,647,5,D
163,98,15,326,283,L,L,657,4,L
163,98,16,155,236,R,D,800,0,D
163,98,17,366,199,R,L,1001,6,L
163,98,18,188,278,R,R,685,2,R
163,98,19,425,222,U,D,744,1,D
163,98,20,194,240,L,L,711,4,L
163,98,21,468,280,R,R,615,0,R
163,98,22,187,262,R,R,688,4,R
163,98,23,383,244,D,D,648,3,D
163,98,24,197,229,U,U,736,3,U
163,98,25,453,262,U,D,679,4,D
163,98,26,302,205,R,R,663,2,R
163,98,27,509,256,R,R,735,3,R
163,98,28,275,198,U,D,736,2,D
163,98,29,134,224,R,R,800,5,R
163,98,30,424,252,L,R,759,0,R
163,98,31,186,222,L,R,1015,0,R
163,98,32,399,288,D,R,816,4,R
163,98,33,247,275,R,R,791,6,R
163,98,34,466,243,L,L,703,4,L
163,98,35,295,287,U,U,760,0,U
163,98,36,142,274,R,R,727,3,R
163,98,37,361,273,D,L,759,2,L
163,98,38,125,273,R,L,688,3,L
163,98,39,313,194,L,D,704,0,D
163,98,40,513,182,R,R,752,5,R
163,98,41,343,272,D,R,990,4,R
163,98,42,174,217,U,U,872,5,U
163,98,43,410,175,L,L,738,5,L
163,98,44,157,210,R,R,647,4,R
163,98,45,473,207,R,D,678,1,D
163,98,46,314,227,U,L,776,2,L
163,98,47,118,263,U,L,815,6,L
163,98,48,266,208,D,R,752,1,R
163,98,49,117,196,U,L,784,6,L
163,98,50,426,243,R,R,624,4,R
163,98,51,201,218,L,U,727,6,U
163,98,52,340,276,L,U,1048,4,U
163,98,53,477,208,D,U,921,1,U
163,98,54,231,247,L,R,767,2,R
163,98,55,402,170,U,U,736,6,U
163,98,56,218,189,D,D,583,0,D
163,98,57,505,289,U,U,711,2,U
163,98,58,317,223,U,U,815,5,U
163,98,59,120,262,U,U,655,0,U
163,99,1,126,190,R,R,624,1,D
163,99,2,480,218,U,U,1207,0,U
163,99,3,320,184,L,L,781,4,L
163,99,4,170,187,D,L,895,6,L
163,99,5,317,228,R,D,1104,5,D
163,99,6,463,235,U,U,926,5,U
163,99,7,304,218,L,L,703,3,L
163,99,8,462,224,L,D,911,4,D
163,99,9,177,249,D,D,632,5,D
163,99,10,336,230,L,U,928,3,U
163,99,11,138,179,R,U,919,3,U
163,99,12,278,288,L,U,807,6,U
163,99,13,131,245,L,L,744,2,L
163,99,14,303,281,L,R,855,0,R
163,99,15,480,251,D,D,985,6,D
163,99,16,122,242,U,U,751,5,U
163,99,17,470,226,L,D,960,5,D
163,99,18,245,245,U,D,800,2,D
163,99,19,502,217,U,R,824,6,R
163,99,20,299,242,R,L,839,2,L
163,99,21,465,200,L,L,640,1,L
163,99,22,281,172,D,R,832,0,R
163,99,23,467,259,U,D,950,3,D
163,99,24,276,270,R,L,775,2,L
163,99,25,469,207,R,R,762,2,R
163,99,26,184,264,D,R,1020,5,R
163,99,27,445,243,U,U,778,4,D
163,99,28,207,236,L,R,853,2,R
163,99,29,440,179,L,L,663,0,L
163,99,30,240,239,L,L,650,2,L
163,99,31,401,274,R,L,854,5,L
163,99,32,156,220,D,L,784,2,L
163,99,33,423,254,R,D,744,6,D
163,99,34,149,202,R,R,719,6,R
163,99,35,446,190,R,L,840,6,L
163,99,36,139,216,D,D,600,2,D
163,99,37,396,237,L,L,632,0,L
163,99,38,193,209,U,R,856,5,R
163,99,39,431,192,R,D,800,4,D
163,99,40,148,177,U,U,686,6,U
163,99,41,417,174,U,D,736,4,D
163,99,42,220,220,U,U,768,2,U
163,99,43,456,271,R,R,664,4,R
163,99,44,313,193,D,D,656,0,D
163,99,45,147,246,R,U,999,3,U
163,99,46,387,230,R,D,1000,0,U
163,99,47,193,221,U,U,592,0,R
163,99,48,518,264,L,L,959,2,L
163,99,49,235,243,D,D,862,5,D
163,99,50,512,239,U,L,713,2,L
163,99,51,273,184,U,U,742,4,U
163,99,52,474,208,L,R,895,3,R
163,99,53,118,212,U,D,767,2,D
163,99,54,294,219,U,U,703,3,U
163,99,55,147,240,R,D,722,5,D
163,100,1,458,200,U,U,1038,6,U
163,100,2,123,223,D,D,828,2,D
163,100,3,332,252,U,L,750,0,L
163,100,4,458,189,D,D,694,5,D
163,100,5,339,279,D,U,815,3,U
163,100,6,178,202,R,R,695,6,R
163,100,7,513,193,L,L,727,4,L
163,100,8,368,194,R,U,776,1,U
163,100,9,194,255,D,U,1047,3,U
163,100,10,350,202,D,D,656,5,D
163,100,11,144,173,D,D,679,5,D
163,100,12,309,274,R,R,608,0,R
163,100,13,452,200,R,R,680,2,R
163,100,14,237,220,L,L,664,4,L
163,100,15,499,188,D,U,871,5,U
163,100,16,142,232,L,R,929,6,R
163,100,17,356,273,L,L,982,4,L
163,100,18,498,236,U,U,649,2,U
163,100,19,344,184,R,D,741,2,D
163,100,20,219,288,L,U,841,2,U
163,100,21,333,186,R,U,799,6,L
163,100,22,124,180,R,R,752,3,D
163,100,23,435,173,U,D,814,2,D
163,100,24,166,240,R,R,688,2,R
163,100,25,508,189,R,R,702,1,R
163,100,26,311,191,D,D,640,3,D
163,100,27,141,212,R,D,808,4,D
163,100,28,487,273,U,L,640,3,L
163,100,29,242,276,L,R,938,5,R
163,100,30,440,187,R,R,974,1,R
163,100,31,146,232,R,L,776,5,L
163,100,32,464,189,D,R,888,0,R
163,100,33,244,233,D,L,696,4,L
163,100,34,447,271,D,L,880,0,L
163,100,35,171,276,R,R,758,1,R
163,100,36,485,244,D,D,658,2,D
163,100,37,145,233,D,L,725,4,L
163,100,38,429,276,R,D,695,1,D
163,100,39,224,181,L,D,744,5,U
163,100,40,432,269,L,R,1160,6,R
163,100,41,166,200,D,R,738,4,R
163,100,42,332,183,R,R,775,3,R
163,100,43,472,187,L,L,718,2,L
163,100,44,234,200,D,R,1296,6,R
163,100,45,378,211,R,R,633,0,R
163,100,46,524,210,D,D,647,4,D
163,100,47,313,240,R,U,752,1,U
163,100,48,451,284,R,U,935,2,U
163,100,49,206,234,U,U,767,3,U
163,100,50,453,265,U,U,810,1,U
163,100,51,305,220,R,R,918,5,R
163,100,52,142,263,R,R,831,5,R
163,100,53,422,283,U,R,880,0,R
163,100,54,170,201,D,U,863,6,U
163,100,55,410,220,R,U,739,5,U
163,100,56,229,221,R,D,820,5,D
163,101,1,467,237,D,R,674,1,R
163,101,2,318,248,U,R,603,1,R
163,101,3,116,257,L,L,695,2,L
163,101,4,382,227,R,U,825,6,U
163,101,5,236,232,D,L,710,0,L
163,101,6,453,213,L,L,919,4,L
163,101,7,217,172,R,R,601,6,R
163,101,8,354,268,R,L,823,0,L
163,101,9,499,277,L,U,879,1,U
163,101,10,266,239,D,U,848,2,U
163,101,11,446,184,D,U,888,2,U
163,101,12,137,265,L,L,799,6,L
163,101,13,485,206,U,U,712,2,U
163,101,14,263,237,U,R,727,4,R
163,101,15,432,232,R,R,672,0,R
163,101,16,121,241,U,D,840,1,D
163,101,17,277,217,R,R,736,3,R
163,101,18,496,264,U,D,881,3,D
163,101,19,175,248,D,R,831,1,R
163,101,20,341,188,L,U,847,3,U
163,101,21,471,288,L,L,752,6,L
163,101,22,195,184,D,D,705,2,D
163,101,23,412,281,L,R,863,3,R
163,101,24,320,170,L,U,672,6,U
163,101,25,421,267,D,D,607,1,D
163,101,26,251,252,D,L,712,3,L
163,101,27,426,184,R,L,743,2,L
163,101,28,231,188,R,R,638,6,R
163,101,29,408,264,R,U,785,1,U
163,101,30,192,193,D,U,807,2,U
163,101,31,509,179,R,R,640,0,R
163,101,32,157,259,D,D,775,2,D
163,101,33,504,242,R,U,687,6,U
163,101,34,229,232,R,L,712,0,L
163,101,35,442,181,L,D,672,2,D
163,101,36,159,200,R,R,623,5,R
163,101,37,296,280,L,L,623,1,L
163,101,38,501,265,L,L,615,2,L
163,101,39,330,234,R,L,640,2,L
163,101,40,193,286,R,R,735,4,R
163,101,41,327,198,R,D,679,3,D
163,101,42,471,239,L,L,800,2,L
163,101,43,216,251,D,L,1048,5,L
163,101,44,488,193,L,D,1031,6,D
163,101,45,181,170,U,U,720,6,U
163,101,46,310,239,R,L,832,2,L
163,101,47,450,231,L,L,800,6,L
163,101,48,246,230,D,D,720,0,D
163,101,49,431,214,U,R,823,5,R
163,101,50,295,253,L,L,688,5,L
163,101,51,433,280,R,R,784,2,R
163,101,52,140,234,U,R,936,3,R
163,101,53,369,178,U,R,847,0,R
163,101,54,521,258,R,R,766,5,R
163,101,55,235,256,L,U,779,4,U
163,101,56,442,237,R,R,759,6,R
163,101,57,182,237,U,R,1040,3,R
163,101,58,360,228,R,R,671,4,R
163,101,59,198,170,L,L,643,0,D
163,102,1,126,189,D,U,1078,0,U
163,102,2,490,218,R,L,763,0,L
163,102,3,223,175,L,L,647,2,L
163,102,4,463,209,L,L,607,0,L
163,102,5,313,287,L,R,888,4,R
163,102,6,205,195,U,R,1190,2,R
163,102,7,414,172,L,R,727,4,R
163,102,8,310,290,D,D,1128,0,D
163,102,9,513,208,R,U,958,5,U
163,102,10,143,191,U,D,872,1,D
163,102,11,426,285,L,U,1023,5,U
163,102,12,186,262,L,U,760,1,U
163,102,13,414,248,D,R,800,0,R
163,102,14,178,175,U,L,850,0,L
163,102,15,402,286,R,U,862,6,U
163,102,16,172,214,L,D,849,6,D
163,102,17,390,259,L,L,679,0,L
163,102,18,217,282,R,R,776,5,R
163,102,19,488,201,L,L,1256,5,L
163,102,20,237,254,U,R,684,4,R
163,102,21,415,192,D,D,728,4,D
163,102,22,272,180,L,L,687,6,L
163,102,23,484,244,R,R,673,4,R
163,102,24,135,186,L,U,975,5,U
163,102,25,332,252,R,R,664,2,R
163,102,26,511,181,R,U,903,0,U
163,102,27,203,290,U,U,744,2,U
163,102,28,491,255,R,U,856,1,U
163,102,29,273,202,R,L,729,2,L
163,102,30,413,278,L,R,983,3,R
163,102,31,172,241,R,R,752,1,R
163,102,32,327,238,L,D,1024,4,D
163,102,33,470,266,U,U,640,1,U
163,102,34,144,178,U,U,686,2,U
163,102,35,334,277,D,U,1127,1,U
163,102,36,124,198,U,U,703,2,U
163,102,37,397,220,L,L,632,2,R
163,102,38,225,185,D,D,855,3,D
163,102,39,418,213,U,R,888,3,R
163,102,40,182,188,D,U,943,4,U
163,102,41,393,250,L,L,672,6,L
163,102,42,216,231,R,L,871,1,L
163,102,43,371,213,R,U,760,4,U
163,102,44,190,211,R,U,754,6,U
163,102,45,400,237,L,D,887,4,D
163,102,46,230,289,L,L,767,0,L
163,102,47,413,177,R,D,864,0,D
163,102,48,254,193,L,D,743,0,D
163,102,49,506,281,R,D,782,5,D
163,102,50,203,229,D,D,706,1,D
163,102,51,339,273,R,R,656,1,R
163,102,52,525,279,R,R,603,0,R
163,102,53,150,181,R,U,661,6,U
163,102,54,470,180,D,D,680,6,D
163,102,55,117,233,L,L,716,6,L
163,103,1,378,242,R,D,717,6,D
163,103,2,518,239,R,R,754,3,R
163,103,3,151,282,R,R,679,2,R
163,103,4,483,209,R,D,736,5,U
163,103,5,202,216,U,U,686,5,U
163,103,6,508,218,U,U,648,4,U
163,103,7,153,269,D,L,751,4,L
163,103,8,329,281,R,D,879,4,D
163,103,9,514,272,U,U,577,2,U
163,103,10,263,217,U,U,655,0,U
163,103,11,422,285,L,L,872,5,L
163,103,12,171,246,R,L,839,4,L
163,103,13,506,174,D,D,734,6,D
163,103,14,381,272,D,D,680,4,D
163,103,15,246,230,D,L,1192,4,L
163,103,16,495,273,L,U,696,0,U
163,103,17,314,264,L,L,904,0,L
163,103,18,177,196,U,L,1064,5,L
163,103,19,349,283,D,D,808,2,D
163,103,20,476,210,L,L,696,0,R
163,103,21,280,263,U,L,831,5,L
163,103,22,475,285,U,U,656,1,U
163,103,23,129,186,D,D,809,0,D
163,103,24,288,200,R,U,943,2,U
163,103,25,492,179,U,U,704,2,U
163,103,26,355,290,D,D,623,2,D
163,103,27,135,209,U,L,825,0,L
163,103,28,495,228,L,D,705,3,D
163,103,29,200,199,L,L,695,1,L
163,103,30,422,279,D,L,759,4,L
163,103,31,179,205,L,L,737,4,L
163,103,32,422,229,U,U,615,2,U
163,103,33,282,202,R,L,631,3,L
163,103,34,152,278,U,R,943,4,R
163,103,35,405,227,U,U,967,4,U
163,103,36,232,221,R,R,664,3,R
163,103,37,484,250,R,D,744,4,L
163,103,38,265,230,L,L,720,6,L
163,103,39,409,233,L,L,655,5,L
163,103,40,173,190,U,D,712,6,U
163,103,41,320,271,U,D,1303,0,D
163,103,42,140,200,L,L,680,3,D
163,103,43,365,191,D,D,599,1,D
163,103,44,203,222,D,D,688,4,D
163,103,45,391,186,U,U,840,1,U
163,103,46,161,247,L,D,864,2,D
163,103,47,462,211,L,R,785,3,R
163,103,48,166,285,L,D,751,4,D
163,103,49,371,176,R,D,838,2,D
163,103,50,144,196,R,L,856,3,L
163,103,51,472,225,L,U,623,6,U
163,103,52,269,275,U,R,848,5,R
163,103,53,445,244,U,L,784,6,L
163,103,54,238,170,L,L,704,5,L
163,103,55,379,187,L,D,663,6,D
163,103,56,524,255,U,R,984,0,R
163,103,57,352,239,D,L,704,3,L
163,103,58,219,179,L,R,935,5,R
163,104,1,330,204,U,L,987,3,L
163,104,2,173,191,D,U,903,1,U
163,104,3,377,228,L,U,744,0,U
163,104,4,206,218,R,D,728,0,D
163,104,5,504,274,L,D,695,2,D
163,104,6,325,276,D,L,775,6,L
163,104,7,458,180,U,R,1005,3,R
163,104,8,266,199,D,D,664,2,D
163,104,9,509,205,L,L,672,3,L
163,104,10,185,268,D,D,688,6,D
163,104,11,353,176,D,D,591,5,D
163,104,12,160,252,R,R,688,1,R
163,104,13,436,251,U,U,727,5,U
163,104,14,228,215,L,L,680,1,L
163,104,15,451,262,D,D,641,6,D
163,104,16,165,203,L,D,944,6,D
163,104,17,360,289,R,R,622,1,R
163,104,18,265,172,L,R,968,6,R
163,104,19,458,207,L,L,686,4,L
163,104,20,144,211,D,R,831,6,R
163,104,21,342,192,U,U,687,3,U
163,104,22,205,232,D,L,719,2,L
163,104,23,452,201,L,L,655,1,L
163,104,24,116,258,D,D,616,2,D
163,104,25,296,178,U,U,743,6,U
163,104,26,504,204,L,L,623,0,L
163,104,27,182,289,R,R,767,4,R
163,104,28,314,241,R,R,719,0,R
163,104,29,180,286,R,U,792,0,U
163,104,30,442,235,R,L,632,2,L
163,104,31,173,218,L,R,704,4,R
163,104,32,517,244,L,L,648,3,L
163,104,33,330,253,R,L,912,4,L
163,104,34,163,175,L,U,896,3,U
163,104,35,413,178,R,R,736,5,R
163,104,36,178,184,U,U,848,2,U
163,104,37,333,192,D,D,599,4,D
163,104,38,175,222,U,L,768,4,L
163,104,39,359,204,R,D,800,3,D
163,104,40,186,260,L,L,704,4,L
163,104,41,364,204,L,R,721,4,D
163,104,42,501,277,L,L,1055,4,L
163,104,43,218,170,U,U,886,0,U
163,104,44,480,217,U,U,735,5,U
163,104,45,231,190,R,R,783,6,R
163,104,46,479,280,D,D,672,6,D
163,104,47,188,251,L,L,688,4,L
163,104,48,450,237,D,R,807,4,R
163,104,49,154,241,D,D,783,6,D
163,104,50,308,239,U,D,656,0,U
163,104,51,485,282,R,R,911,2,R
163,104,52,290,174,U,L,736,3,D
163,104,53,521,210,U,U,991,5,U
163,104,54,296,241,L,R,776,3,R
163,104,55,129,193,U,L,1094,4,L
163,104,56,432,203,L,L,679,5,L
163,104,57,220,227,R,D,776,4,D
163,104,58,447,185,D,D,679,3,D
163,104,59,126,259,U,L,688,4,L
163,105,1,201,193,D,D,772,1,D
163,105,2,417,281,U,R,882,0,R
163,105,3,164,257,D,L,744,2,L
163,105,4,350,178,D,U,831,5,U
163,105,5,504,283,U,U,768,5,U
163,105,6,281,172,R,L,834,2,L
163,105,7,177,271,L,D,814,1,D
163,105,8,441,272,D,D,670,1,D
163,105,9,305,193,R,L,808,0,L
163,105,10,468,287,L,L,711,6,L
163,105,11,209,190,L,U,832,1,U
163,105,12,474,285,D,D,680,2,D
163,105,13,272,286,U,R,719,1,R
163,105,14,425,170,D,L,991,6,L
163,105,15,204,229,D,L,680,4,L
163,105,16,374,218,U,U,680,4,U
163,105,17,175,264,D,D,608,0,D
163,105,18,322,242,L,L,679,1,L
163,105,19,144,207,D,D,776,1,D
163,105,20,426,181,L,L,632,3,L
163,105,21,162,256,D,L,751,6,L
163,105,22,452,266,L,L,660,4,R
163,105,23,228,228,D,R,933,5,R
163,105,24,396,230,D,U,926,5,U
163,105,25,165,177,L,D,911,3,D
163,105,26,351,290,L,L,808,5,L
163,105,27,523,205,D,U,952,5,U
163,105,28,347,199,L,L,639,1,L
163,105,29,502,214,U,U,679,1,U
163,105,30,341,220,D,D,632,6,D
163,105,31,149,247,L,D,776,1,D
163,105,32,304,215,R,U,1016,0,U
163,105,33,162,171,R,R,840,3,R
163,105,34,400,171,R,R,721,6,R
163,105,35,190,289,R,L,728,4,L
163,105,36,445,223,U,U,664,0,U
163,105,37,213,283,U,U,758,2,U
163,105,38,479,282,L,L,720,3,U
163,105,39,329,219,R,U,943,6,U
163,105,40,178,275,D,D,721,2,D
163,105,41,488,244,L,D,735,0,D
163,105,42,211,239,L,U,799,3,U
163,105,43,503,232,L,D,647,4,D
163,105,44,185,246,R,R,665,3,R
163,105,45,385,262,R,U,945,2,U
163,105,46,205,268,R,L,921,5,L
163,105,47,370,180,D,L,815,5,L
163,105,48,474,287,U,U,742,4,U
163,105,49,278,238,D,D,897,2,D
163,105,50,441,263,U,D,774,6,D
163,105,51,132,208,U,R,768,3,R
163,105,52,306,276,U,D,1047,3,D
163,105,53,146,182,D,D,847,4,D
163,105,54,484,201,R,D,720,5,D
163,105,55,213,218,U,U,838,4,U
163,105,56,398,195,D,U,905,3,U
163,105,57,185,243,L,L,671,6,L
163,106,1,362,267,D,U,985,6,U
163,106,2,202,278,U,U,873,0,U
163,106,3,383,258,L,R,946,0,R
163,106,4,138,181,U,U,702,2,U
163,106,5,463,270,R,D,775,0,D
163,106,6,216,208,D,D,688,2,D
163,106,7,473,289,R,R,680,3,R
163,106,8,141,255,D,D,704,5,D
163,106,9,332,197,L,D,934,3,D
163,106,10,474,200,D,R,816,2,R
163,106,11,206,173,R,U,649,0,U
163,106,12,333,234,D,D,583,0,D
163,106,13,482,286,U,R,887,0,R
163,106,14,222,254,L,D,783,1,D
163,106,15,513,170,L,R,815,3,R
163,106,16,374,269,D,U,952,4,U
163,106,17,195,183,R,R,783,0,R
163,106,18,403,248,L,L,847,2,L
163,106,19,225,286,D,D,680,5,D
163,106,20,515,235,R,L,920,5,L
163,106,21,129,235,R,U,824,4,U
163,106,22,475,218,L,U,926,3,U
163,106,23,172,230,U,L,784,2,L
163,106,24,387,239,D,D,704,4,D
163,106,25,153,264,L,R,856,5,R
163,106,26,346,189,R,R,768,6,R
163,106,27,128,289,R,R,648,2,R
163,106,28,426,287,R,L,680,0,L
163,106,29,149,235,R,R,784,0,R
163,106,30,518,191,U,L,872,0,L
163,106,31,415,289,D,U,816,1,U
163,106,32,213,188,R,R,808,6,L
163,106,33,497,190,U,D,975,6,D
163,106,34,201,252,D,D,743,3,D
163,106,35,385,187,U,U,759,1,U
163,106,36,133,264,L,D,791,2,D
163,106,37,406,284,U,R,743,6,R
163,106,38,121,189,D,D,791,2,D
163,106,39,524,254,L,L,751,4,L
163,106,40,312,203,L,R,824,2,R
163,106,41,175,286,R,R,1078,3,R
163,106,42,372,186,L,L,672,0,L
163,106,43,522,238,R,R,753,4,R
163,106,44,138,230,U,U,895,2,U
163,106,45,501,192,R,R,785,5,R
163,106,46,155,210,D,U,807,5,U
163,106,47,456,254,U,U,720,6,U
163,106,48,119,264,R,L,864,2,L
163,106,49,485,257,U,L,729,0,L
163,106,50,327,192,D,D,654,6,D
163,106,51,117,284,U,R,952,3,R
163,106,52,508,231,L,R,833,4,R
163,106,53,348,224,U,D,814,3,R
163,106,54,190,260,U,U,751,0,U
163,106,55,397,235,L,L,649,6,L
163,106,56,247,260,R,U,1014,5,U
163,107,1,342,286,D,L,744,6,L
163,107,2,174,266,D,D,864,4,D
163,107,3,348,216,R,D,799,5,D
163,107,4,162,245,D,U,728,0,U
163,107,5,383,176,R,R,743,4,R
163,107,6,483,276,U,L,889,2,L
163,107,7,253,254,L,L,718,5,L
163,107,8,480,245,D,D,584,1,D
163,107,9,142,285,R,R,680,5,R
163,107,10,525,288,L,L,776,6,L
163,107,11,311,223,U,U,673,5,U
163,107,12,511,231,U,R,801,0,R
163,107,13,274,191,R,L,632,3,L
163,107,14,131,227,D,R,968,3,R
163,107,15,278,194,L,L,669,0,L
163,107,16,404,287,D,R,935,6,R
163,107,17,139,281,U,R,673,1,R
163,107,18,435,243,L,L,600,3,L
163,107,19,144,255,D,L,760,2,L
163,107,20,418,277,U,U,672,1,U
163,107,21,183,224,R,R,904,2,R
163,107,22,369,192,L,L,719,5,L
163,107,23,118,193,L,U,863,0,U
163,107,24,300,188,R,R,656,4,R
163,107,25,458,216,U,D,623,5,D
163,107,26,179,248,L,R,927,1,R
163,107,27,384,229,D,D,641,6,D
163,107,28,172,192,U,D,857,6,D
163,107,29,492,185,U,U,839,6,U
163,107,30,179,277,U,D,594,0,U
163,107,31,376,280,U,R,901,1,R
163,107,32,154,242,R,R,632,4,R
163,107,33,451,173,L,L,687,1,L
163,107,34,297,277,L,D,744,2,D
163,107,35,123,202,D,D,719,0,L
163,107,36,367,229,L,L,679,1,L
163,107,37,225,261,D,R,689,4,R
163,107,38,456,266,U,U,792,1,U
163,107,39,228,262,D,L,681,4,L
163,107,40,524,269,U,U,703,6,U
163,107,41,136,279,L,D,999,5,D
163,107,42,503,249,R,U,816,2,U
163,107,43,245,241,U,U,1000,6,U
163,107,44,503,282,R,U,1110,4,U
163,107,45,228,243,U,U,720,3,U
163,107,46,441,173,D,D,665,0,D
163,107,47,244,271,R,U,855,4,U
163,107,48,496,246,D,U,930,0,U
163,107,49,217,192,U,U,910,0,U
163,107,50,378,214,L,L,615,3,L
163,107,51,186,233,U,U,920,0,U
163,107,52,523,265,U,U,815,1,U
163,107,53,253,193,R,U,960,3,U
163,107,54,407,274,R,U,920,4,U
163,107,55,129,189,U,L,766,4,U
163,107,56,479,235,D,R,896,1,R
163,107,57,295,283,D,L,744,1,L
163,108,1,427,180,R,D,813,5,D
163,108,2,138,273,U,L,811,0,L
163,108,3,291,214,R,R,679,0,R
163,108,4,476,220,D,R,807,5,R
163,108,5,215,248,L,L,672,5,L
163,108,6,479,251,D,R,793,2,R
163,108,7,148,172,L,D,799,4,D
163,108,8,396,214,R,D,703,2,D
163,108,9,212,210,U,D,632,2,D
163,108,10,517,199,U,L,754,5,L
163,108,11,171,211,D,D,646,3,D
163,108,12,440,184,R,R,726,4,R
163,108,13,297,244,D,D,1000,4,D
163,108,14,513,273,D,D,681,2,D
163,108,15,125,253,L,D,807,1,D
163,108,16,400,223,R,L,808,6,L
163,108,17,122,250,L,U,858,2,U
163,108,18,468,235,R,R,653,1,R
163,108,19,246,201,D,D,896,6,D
163,108,20,476,223,L,D,799,4,D
163,108,21,115,207,D,D,711,6,D
163,108,22,429,206,L,L,746,3,L
163,108,23,178,216,D,R,662,4,R
163,108,24,495,290,U,D,822,5,D
163,108,25,370,191,L,L,809,5,L
163,108,26,173,285,R,R,718,1,R
163,108,27,392,242,D,R,703,2,R
163,108,28,187,185,R,R,665,5,R
163,108,29,396,230,D,D,718,3,D
163,108,30,214,263,U,L,854,4,L
163,108,31,352,223,D,L,801,3,L
163,108,32,214,260,D,D,602,6,D
163,108,33,495,240,D,U,904,0,U
163,108,34,199,178,D,D,735,0,R
163,108,35,358,190,D,D,928,4,D
163,108,36,217,200,D,R,1030,5,R
163,108,37,477,242,U,D,719,2,D
163,108,38,275,204,U,L,671,1,L
163,108,39,490,170,U,U,727,0,U
163,108,40,183,243,L,L,711,1,R
163,108,41,412,224,R,D,816,0,D
